time,seconds_elapsed,z,y,x
1722584691389884700,0.026884765625,-0.017139999195933342,-0.0214610006660223,0.0033839999232441187
1722584691409788200,0.0467880859375,-0.017139999195933342,-0.0214610006660223,0.0033839999232441187
1722584691429692000,0.06669189453125,-0.017139999195933342,-0.0214610006660223,0.0033839999232441187
1722584691449595400,0.086595458984375,-0.017139999195933342,-0.0214610006660223,0.0033839999232441187
1722584691469499100,0.1064990234375,-0.017139999195933342,-0.0214610006660223,0.0033839999232441187
1722584691489403000,0.12640283203125,-0.017139999195933342,-0.0214610006660223,0.0033839999232441187
1722584691509306400,0.146306396484375,-0.017139999195933342,-0.0214610006660223,0.0033839999232441187
1722584691529306400,0.166306396484375,-0.017139999195933342,-0.0214610006660223,0.0033839999232441187
1722584691549306400,0.186306396484375,-0.017139999195933342,-0.0214610006660223,0.0033839999232441187
1722584691569306400,0.206306396484375,-0.017139999195933342,-0.0214610006660223,0.0033839999232441187
1722584691589306400,0.226306396484375,-0.017139999195933342,-0.0214610006660223,0.0033839999232441187
1722584691610889500,0.247889404296875,0.13253000378608704,-0.7964699864387512,-1.7731200456619263
1722584691620889600,0.2578896484375,0.13253000378608704,-0.7964699864387512,-1.7731200456619263
1722584691630875000,0.267875,0.28990399837493896,-0.7031000256538391,-1.4976060390472412
1722584691640860200,0.277860107421875,0.28990399837493896,-0.7031000256538391,-1.4976060390472412
1722584691650821400,0.2878212890625,0.27626100182533264,-0.050717998296022415,-1.7071900367736816
1722584691660782600,0.297782470703125,0.27626100182533264,-0.050717998296022415,-1.7071900367736816
1722584691670748400,0.30774853515625,1.587893009185791,-0.3262439966201782,-1.15933096408844
1722584691680714000,0.3177138671875,1.587893009185791,-0.3262439966201782,-1.15933096408844
1722584691690692900,0.32769287109375,0.9191489815711975,-0.042792998254299164,-1.3734010457992554
1722584691700671500,0.33767138671875,0.9191489815711975,-0.042792998254299164,-1.3734010457992554
1722584691710657500,0.347657470703125,0.07072100043296814,-0.06321799755096436,-1.3973850011825562
1722584691720643600,0.3576435546875,0.07072100043296814,-0.06321799755096436,-1.3973850011825562
1722584691730633700,0.3676337890625,1.101369023323059,0.2332949936389923,-0.6573920249938965
1722584691740624000,0.377623779296875,1.101369023323059,0.2332949936389923,-0.6573920249938965
1722584691750610000,0.38760986328125,-0.5468980073928833,-0.1744769960641861,-0.8731229901313782
1722584691760596200,0.39759619140625,-0.5468980073928833,-0.1744769960641861,-0.8731229901313782
1722584691770580000,0.407580078125,-0.5983560085296631,-0.21741199493408203,-0.503898024559021
1722584691780563700,0.417563720703125,-0.5983560085296631,-0.21741199493408203,-0.503898024559021
1722584691790549500,0.427549560546875,-0.16058899462223053,-0.5033900141716003,-0.7831439971923828
1722584691800535300,0.437535400390625,-0.16058899462223053,-0.5033900141716003,-0.7831439971923828
1722584691810517000,0.44751708984375,0.7646369934082031,0.050025999546051025,0.020150000229477882
1722584691820498400,0.45749853515625,0.7646369934082031,0.050025999546051025,0.020150000229477882
1722584691830480400,0.46748046875,-1.1871540546417236,-0.3403150141239166,-0.13710300624370575
1722584691840462300,0.47746240234375,-1.1871540546417236,-0.3403150141239166,-0.13710300624370575
1722584691850446600,0.487446533203125,0.16233199834823608,-0.7478809952735901,0.2996610105037689
1722584691860431000,0.49743115234375,0.16233199834823608,-0.7478809952735901,0.2996610105037689
1722584691870410800,0.50741064453125,0.24162699282169342,-0.5978149771690369,-0.21050600707530975
1722584691880390700,0.517390625,0.24162699282169342,-0.5978149771690369,-0.21050600707530975
1722584691890375200,0.527375244140625,0.30973899364471436,-0.2755669951438904,0.03705599904060364
1722584691900359700,0.537359619140625,0.30973899364471436,-0.2755669951438904,0.03705599904060364
1722584691910342100,0.547342041015625,-0.414139986038208,0.21195000410079956,-0.5011860132217407
1722584691920324900,0.557324951171875,-0.414139986038208,0.21195000410079956,-0.5011860132217407
1722584691930310400,0.567310302734375,1.0480329990386963,-0.08585900068283081,-0.6557220220565796
1722584691940296000,0.5772958984375,1.0480329990386963,-0.08585900068283081,-0.6557220220565796
1722584691950281200,0.58728125,1.159168004989624,0.26350000500679016,-0.3987079858779907
1722584691960266800,0.597266845703125,1.159168004989624,0.26350000500679016,-0.3987079858779907
1722584691970251300,0.607251220703125,-2.173258066177368,0.28717198967933655,-0.683351993560791
1722584691980235800,0.61723583984375,-2.173258066177368,0.28717198967933655,-0.683351993560791
1722584691990222300,0.627222412109375,1.8814430236816406,0.06476700305938721,-0.2340790033340454
1722584692000209200,0.637209228515625,1.8814430236816406,0.06476700305938721,-0.2340790033340454
1722584692010194000,0.64719384765625,-0.31981000304222107,0.5296319723129272,0.05935300141572952
1722584692020178700,0.6571787109375,-0.31981000304222107,0.5296319723129272,0.05935300141572952
1722584692030155500,0.667155517578125,-1.7399649620056152,-0.7253299951553345,-0.6695950031280518
1722584692040132400,0.67713232421875,-1.7399649620056152,-0.7253299951553345,-0.6695950031280518
1722584692050111700,0.68711181640625,1.788970947265625,0.8363829851150513,0.5631489753723145
1722584692060091100,0.697091064453125,1.788970947265625,0.8363829851150513,0.5631489753723145
1722584692070079200,0.707079345703125,-2.023531913757324,-0.3559019863605499,1.110748052597046
1722584692080067300,0.7170673828125,-2.023531913757324,-0.3559019863605499,1.110748052597046
1722584692090052400,0.72705224609375,0.13562500476837158,-0.14722099900245667,-0.22254399955272675
1722584692100037600,0.73703759765625,0.13562500476837158,-0.14722099900245667,-0.22254399955272675
1722584692110023700,0.747023681640625,2.199431896209717,0.7815960049629211,1.4494789838790894
1722584692120009500,0.757009521484375,2.199431896209717,0.7815960049629211,1.4494789838790894
1722584692129985500,0.766985595703125,-3.0363669395446777,-0.2488439977169037,1.511428952217102
1722584692139961900,0.7769619140625,-3.0363669395446777,-0.2488439977169037,1.511428952217102
1722584692149950200,0.7869501953125,1.5964939594268799,-1.3438479900360107,-0.9919999837875366
1722584692159938300,0.796938232421875,1.5964939594268799,-1.3438479900360107,-0.9919999837875366
1722584692169924000,0.806924072265625,3.472788095474243,0.006982999853789806,0.7096220254898071
1722584692179910000,0.816909912109375,3.472788095474243,0.006982999853789806,0.7096220254898071
1722584692189900300,0.826900390625,-4.879735946655273,-0.6088809967041016,0.867222011089325
1722584692199891000,0.836890869140625,-4.879735946655273,-0.6088809967041016,0.867222011089325
1722584692209856300,0.846856201171875,2.1562631130218506,-0.3389889895915985,-2.0790228843688965
1722584692219821600,0.856821533203125,2.1562631130218506,-0.3389889895915985,-2.0790228843688965
1722584692229810200,0.86681005859375,4.517168045043945,0.33155199885368347,-0.05354499816894531
1722584692239798800,0.876798828125,4.517168045043945,0.33155199885368347,-0.05354499816894531
1722584692249773000,0.88677294921875,-3.326246976852417,-0.15981100499629974,1.3582630157470703
1722584692259747300,0.896747314453125,-3.326246976852417,-0.15981100499629974,1.3582630157470703
1722584692269725000,0.906724853515625,0.8409810066223145,-0.047067999839782715,-1.8184939622879028
1722584692279702800,0.916702880859375,0.8409810066223145,-0.047067999839782715,-1.8184939622879028
1722584692289689600,0.926689697265625,0.4903790056705475,0.1391720026731491,-0.5189030170440674
1722584692299676400,0.936676513671875,0.4903790056705475,0.1391720026731491,-0.5189030170440674
1722584692309665000,0.9466650390625,0.9640859961509705,0.577114999294281,0.6253299713134766
1722584692319653400,0.9566533203125,0.9640859961509705,0.577114999294281,0.6253299713134766
1722584692329646600,0.966646484375,-2.82185697555542,0.5925729870796204,-0.268094003200531
1722584692339639600,0.9766396484375,-2.82185697555542,0.5925729870796204,-0.268094003200531
1722584692349634300,0.98663427734375,0.5526250004768372,0.22961999475955963,0.5026190280914307
1722584692359629000,0.996629150390625,0.5526250004768372,0.22961999475955963,0.5026190280914307
1722584692369622300,1.006622314453125,-0.40387099981307983,-0.8340550065040588,0.11914099752902985
1722584692379615500,1.016615478515625,-0.40387099981307983,-0.8340550065040588,0.11914099752902985
1722584692389583000,1.0265830078125,-0.833732008934021,-0.08863700181245804,-0.029721999540925026
1722584692399550700,1.03655078125,-0.833732008934021,-0.08863700181245804,-0.029721999540925026
1722584692409513500,1.046513427734375,-0.8721020221710205,0.195701003074646,-0.4247550070285797
1722584692419476200,1.056476318359375,-0.8721020221710205,0.195701003074646,-0.4247550070285797
1722584692429454800,1.066454833984375,0.046539001166820526,-0.06749899685382843,0.11903200298547745
1722584692439433200,1.07643310546875,0.046539001166820526,-0.06749899685382843,0.11903200298547745
1722584692449396500,1.086396484375,0.31154900789260864,-0.008559999987483025,-0.2772969901561737
1722584692459360000,1.096360107421875,0.31154900789260864,-0.008559999987483025,-0.2772969901561737
1722584692469349400,1.106349365234375,-2.4714629650115967,-0.03358900174498558,0.2800309956073761
1722584692479338500,1.11633837890625,-2.4714629650115967,-0.03358900174498558,0.2800309956073761
1722584692489325800,1.126325927734375,-0.14398300647735596,-0.2338770031929016,-0.2789340019226074
1722584692499313000,1.13631298828125,-0.14398300647735596,-0.2338770031929016,-0.2789340019226074
1722584692509301500,1.146301513671875,0.9872279763221741,-0.8898950219154358,0.2821129858493805
1722584692519289900,1.156289794921875,0.9872279763221741,-0.8898950219154358,0.2821129858493805
1722584692529268500,1.1662685546875,-1.6503989696502686,0.19042199850082397,-0.3414030075073242
1722584692539247400,1.176247314453125,-1.6503989696502686,0.19042199850082397,-0.3414030075073242
1722584692549210600,1.186210693359375,-0.125560000538826,0.48396098613739014,-0.8054389953613281
1722584692559173600,1.196173583984375,-0.125560000538826,0.48396098613739014,-0.8054389953613281
1722584692569162500,1.20616259765625,1.5444509983062744,-0.15951700508594513,-0.07615400105714798
1722584692579151000,1.216151123046875,1.5444509983062744,-0.15951700508594513,-0.07615400105714798
1722584692589117400,1.226117431640625,-1.2615610361099243,0.687529981136322,-0.05206900089979172
1722584692599083800,1.236083740234375,-1.2615610361099243,0.687529981136322,-0.05206900089979172
1722584692609046500,1.246046630859375,-0.23172999918460846,1.1462769508361816,-0.8081250190734863
1722584692619009300,1.25600927734375,-0.23172999918460846,1.1462769508361816,-0.8081250190734863
1722584692628988700,1.26598876953125,1.214764952659607,-0.5267770290374756,-0.3663190007209778
1722584692638967800,1.2759677734375,1.214764952659607,-0.5267770290374756,-0.3663190007209778
1722584692648953000,1.285953125,-0.965254008769989,0.3200739920139313,0.2855969965457916
1722584692658938000,1.295938232421875,-0.965254008769989,0.3200739920139313,0.2855969965457916
1722584692668901000,1.305901123046875,-1.2580000162124634,0.06994900107383728,-0.06341300159692764
1722584692678864100,1.315864013671875,-1.2580000162124634,0.06994900107383728,-0.06341300159692764
1722584692688839000,1.3258388671875,1.1819939613342285,0.13760000467300415,0.5945770144462585
1722584692698813700,1.335813720703125,1.1819939613342285,0.13760000467300415,0.5945770144462585
1722584692708801300,1.34580126953125,-0.905430018901825,-0.0453139990568161,0.6829890012741089
1722584692718788900,1.355788818359375,-0.905430018901825,-0.0453139990568161,0.6829890012741089
1722584692728777700,1.36577783203125,-0.6636559963226318,0.2611739933490753,0.6033070087432861
1722584692738766800,1.375766845703125,-0.6636559963226318,0.2611739933490753,0.6033070087432861
1722584692748755700,1.385755615234375,0.6920779943466187,0.33198100328445435,0.9200850129127502
1722584692758744600,1.39574462890625,0.6920779943466187,0.33198100328445435,0.9200850129127502
1722584692768723200,1.40572314453125,-0.7576469779014587,-0.0021559998858720064,0.3850190043449402
1722584692778702000,1.4157021484375,-0.7576469779014587,-0.0021559998858720064,0.3850190043449402
1722584692788679700,1.4256796875,-0.5803620219230652,-0.8087440133094788,-0.08932899683713913
1722584692798657300,1.4356572265625,-0.5803620219230652,-0.8087440133094788,-0.08932899683713913
1722584692808632300,1.44563232421875,-0.38763999938964844,0.5885549783706665,0.7634440064430237
1722584692818607600,1.455607666015625,-0.38763999938964844,0.5885549783706665,0.7634440064430237
1722584692828593700,1.46559375,-0.35260799527168274,-0.06295499950647354,-0.142767995595932
1722584692838579700,1.475579833984375,-0.35260799527168274,-0.06295499950647354,-0.142767995595932
1722584692848570400,1.4855703125,0.6926379799842834,0.0016459999606013298,0.12146899849176407
1722584692858561000,1.49556103515625,0.6926379799842834,0.0016459999606013298,0.12146899849176407
1722584692868538600,1.50553857421875,-1.180124044418335,-0.013631000183522701,0.004546999931335449
1722584692878516200,1.51551611328125,-1.180124044418335,-0.013631000183522701,0.004546999931335449
1722584692888503300,1.52550341796875,0.5682269930839539,-0.9816110134124756,-0.7127540111541748
1722584692898490000,1.535489990234375,0.5682269930839539,-0.9816110134124756,-0.7127540111541748
1722584692908473300,1.545473388671875,0.413659006357193,-0.19885599613189697,0.001693999976851046
1722584692918456600,1.55545654296875,0.413659006357193,-0.19885599613189697,0.001693999976851046
1722584692928442600,1.565442626953125,-0.5942010283470154,0.5907160043716431,-0.06480900198221207
1722584692938428400,1.575428466796875,-0.5942010283470154,0.5907160043716431,-0.06480900198221207
1722584692948403500,1.585403564453125,0.6470400094985962,-0.5036460161209106,-0.12575599551200867
1722584692958378800,1.595378662109375,0.6470400094985962,-0.5036460161209106,-0.12575599551200867
1722584692968342000,1.605342041015625,-0.24265900254249573,-0.7214620113372803,-0.024441000074148178
1722584692978305300,1.61530517578125,-0.24265900254249573,-0.7214620113372803,-0.024441000074148178
1722584692988291300,1.625291259765625,0.12775300443172455,0.2371470034122467,-0.08672600239515305
1722584692998277400,1.63527734375,0.12775300443172455,0.2371470034122467,-0.08672600239515305
1722584693008255200,1.645255126953125,0.41565200686454773,0.25655099749565125,0.17354099452495575
1722584693018233000,1.655233154296875,0.41565200686454773,0.25655099749565125,0.17354099452495575
1722584693028199200,1.66519921875,0.24548299610614777,-0.5860030055046082,0.18337400257587433
1722584693038165200,1.675165283203125,0.24548299610614777,-0.5860030055046082,0.18337400257587433
1722584693048153600,1.685153564453125,0.2909640073776245,0.6028460264205933,0.021399000659585
1722584693058142000,1.695141845703125,0.2909640073776245,0.6028460264205933,0.021399000659585
1722584693068130600,1.705130615234375,-0.19517700374126434,-0.8774930238723755,-0.2135459929704666
1722584693078119400,1.715119384765625,-0.19517700374126434,-0.8774930238723755,-0.2135459929704666
1722584693088103700,1.725103759765625,0.3298659920692444,0.1593489944934845,0.09522899985313416
1722584693098088000,1.735087890625,0.3298659920692444,0.1593489944934845,0.09522899985313416
1722584693108068900,1.74506884765625,0.22953900694847107,0.7321100234985352,-0.14016400277614594
1722584693118049800,1.7550498046875,0.22953900694847107,0.7321100234985352,-0.14016400277614594
1722584693128031500,1.765031494140625,-0.6422309875488281,-0.5922240018844604,-0.5368840098381042
1722584693138013400,1.775013427734375,-0.6422309875488281,-0.5922240018844604,-0.5368840098381042
1722584693147998700,1.784998779296875,1.0011769533157349,1.2907509803771973,0.24401600658893585
1722584693157984300,1.794984375,1.0011769533157349,1.2907509803771973,0.24401600658893585
1722584693167949000,1.804948974609375,-0.564877986907959,-0.43985798954963684,-0.4335539937019348
1722584693177913900,1.814913818359375,-0.564877986907959,-0.43985798954963684,-0.4335539937019348
1722584693187891700,1.8248916015625,-0.014169000089168549,0.7397980093955994,0.05157800018787384
1722584693197869600,1.83486962890625,-0.014169000089168549,0.7397980093955994,0.05157800018787384
1722584693207845000,1.84484521484375,0.39213401079177856,-0.3728860020637512,-0.009681999683380127
1722584693217820400,1.8548203125,0.39213401079177856,-0.3728860020637512,-0.009681999683380127
1722584693227797200,1.86479736328125,-0.38690799474716187,0.09475699812173843,0.08885899931192398
1722584693237773800,1.87477392578125,-0.38690799474716187,0.09475699812173843,0.08885899931192398
1722584693247749400,1.884749267578125,-0.6862099766731262,-0.39315199851989746,0.10021200031042099
1722584693257725200,1.89472509765625,-0.6862099766731262,-0.39315199851989746,0.10021200031042099
1722584693267699500,1.904699462890625,0.2717759907245636,0.3008660078048706,0.33765101432800293
1722584693277673700,1.914673828125,0.2717759907245636,0.3008660078048706,0.33765101432800293
1722584693287661800,1.924661865234375,0.2809840142726898,-0.41410601139068604,0.32937899231910706
1722584693297650000,1.93464990234375,0.2809840142726898,-0.41410601139068604,0.32937899231910706
1722584693307623000,1.944622802734375,-0.9688659906387329,0.1293179988861084,0.15481899678707123
1722584693317596000,1.954595947265625,-0.9688659906387329,0.1293179988861084,0.15481899678707123
1722584693327585800,1.964585693359375,0.29524001479148865,0.7485679984092712,0.27402999997138977
1722584693337575700,1.97457568359375,0.29524001479148865,0.7485679984092712,0.27402999997138977
1722584693347556400,1.984556396484375,1.1772509813308716,-0.6611350178718567,0.17372700572013855
1722584693357536800,1.994536865234375,1.1772509813308716,-0.6611350178718567,0.17372700572013855
1722584693367515100,2.00451513671875,-0.6974220275878906,-0.5823220014572144,-0.16759200394153595
1722584693377493500,2.014493408203125,-0.6974220275878906,-0.5823220014572144,-0.16759200394153595
1722584693387459800,2.0244599609375,-0.23489700257778168,0.19511599838733673,-0.03923900052905083
1722584693397426400,2.034426513671875,-0.23489700257778168,0.19511599838733673,-0.03923900052905083
1722584693407406800,2.04440673828125,1.1709129810333252,0.05402100086212158,-0.2044830024242401
1722584693417387300,2.05438720703125,1.1709129810333252,0.05402100086212158,-0.2044830024242401
1722584693427373800,2.064373779296875,0.5110610127449036,-0.0836229994893074,-0.20798000693321228
1722584693437360400,2.0743603515625,0.5110610127449036,-0.0836229994893074,-0.20798000693321228
1722584693447345400,2.084345458984375,-0.5462489724159241,0.10678300261497498,-0.43834298849105835
1722584693457330400,2.094330322265625,-0.5462489724159241,0.10678300261497498,-0.43834298849105835
1722584693467318300,2.104318359375,0.13638299703598022,-0.35151201486587524,-0.472214013338089
1722584693477305900,2.114305908203125,0.13638299703598022,-0.35151201486587524,-0.472214013338089
1722584693487298800,2.124298828125,0.5106760263442993,-0.4871459901332855,-0.19972099363803864
1722584693497291500,2.13429150390625,0.5106760263442993,-0.4871459901332855,-0.19972099363803864
1722584693507270100,2.144270263671875,-0.06925799697637558,-0.3228740096092224,-0.3210670053958893
1722584693517248500,2.15424853515625,-0.06925799697637558,-0.3228740096092224,-0.3210670053958893
1722584693527239200,2.1642392578125,-0.6352880001068115,0.23615799844264984,0.2732410132884979
1722584693537229800,2.174229736328125,-0.6352880001068115,0.23615799844264984,0.2732410132884979
1722584693547221000,2.184220947265625,0.2073020040988922,-0.06695599853992462,-0.09407199919223785
1722584693557212200,2.194212158203125,0.2073020040988922,-0.06695599853992462,-0.09407199919223785
1722584693567202800,2.204202880859375,0.6705970168113708,0.10531900078058243,0.39012598991394043
1722584693577193700,2.21419384765625,0.6705970168113708,0.10531900078058243,0.39012598991394043
1722584693587171300,2.22417138671875,-0.13191300630569458,0.19600600004196167,0.24539799988269806
1722584693597149200,2.234149169921875,-0.13191300630569458,0.19600600004196167,0.24539799988269806
1722584693607129000,2.244129150390625,-0.6009640097618103,-0.11228399723768234,-0.07915700227022171
1722584693617108700,2.254108642578125,-0.6009640097618103,-0.11228399723768234,-0.07915700227022171
1722584693627086300,2.26408642578125,0.2591080069541931,-0.04459400102496147,0.13167600333690643
1722584693637064200,2.274064208984375,0.2591080069541931,-0.04459400102496147,0.13167600333690643
1722584693647048200,2.284048095703125,-0.5255209803581238,-0.04751399904489517,0.1105709969997406
1722584693657032400,2.294032470703125,-0.5255209803581238,-0.04751399904489517,0.1105709969997406
1722584693667011600,2.304011474609375,0.4335919916629791,0.11255600303411484,0.010990000329911709
1722584693676991000,2.313990966796875,0.4335919916629791,0.11255600303411484,0.010990000329911709
1722584693686955000,2.323955078125,-0.20077000558376312,0.10890199989080429,-0.07129500061273575
1722584693696919300,2.333919189453125,-0.20077000558376312,0.10890199989080429,-0.07129500061273575
1722584693706897200,2.343897216796875,0.8248609900474548,0.024582000449299812,0.23173099756240845
1722584693716875000,2.353875,0.8248609900474548,0.024582000449299812,0.23173099756240845
1722584693726851000,2.36385107421875,-0.033229000866413116,0.41997000575065613,0.5898950099945068
1722584693736827100,2.3738271484375,-0.033229000866413116,0.41997000575065613,0.5898950099945068
1722584693746806000,2.383805908203125,0.358720988035202,0.10929600149393082,0.21335899829864502
1722584693756785000,2.393784912109375,0.358720988035202,0.10929600149393082,0.21335899829864502
1722584693766764300,2.403764404296875,0.6540349721908569,-1.0621110200881958,-0.35403499007225037
1722584693776744000,2.413743896484375,0.6540349721908569,-1.0621110200881958,-0.35403499007225037
1722584693786723600,2.4237236328125,0.3905380070209503,-0.1666020005941391,0.11087899655103683
1722584693796703000,2.433702880859375,0.3905380070209503,-0.1666020005941391,0.11087899655103683
1722584693806669800,2.443669921875,-0.0405149981379509,-0.05822699889540672,-0.06713499873876572
1722584693816636400,2.453636474609375,-0.0405149981379509,-0.05822699889540672,-0.06713499873876572
1722584693826614500,2.463614501953125,0.8568339943885803,-0.10903999954462051,0.08253800123929977
1722584693836592600,2.473592529296875,0.8568339943885803,-0.10903999954462051,0.08253800123929977
1722584693846560000,2.48356005859375,0.9479519724845886,-0.543861985206604,0.2894900143146515
1722584693856527000,2.493527099609375,0.9479519724845886,-0.543861985206604,0.2894900143146515
1722584693866505500,2.50350537109375,-0.5244420170783997,-0.8085399866104126,-0.4130769968032837
1722584693876484000,2.513484130859375,-0.5244420170783997,-0.8085399866104126,-0.4130769968032837
1722584693886473000,2.523472900390625,-0.8173679709434509,1.035768985748291,0.06057799980044365
1722584693896462000,2.533462158203125,-0.8173679709434509,1.035768985748291,0.06057799980044365
1722584693906426400,2.54342626953125,0.33659398555755615,0.4983910024166107,0.14094099402427673
1722584693916390700,2.553390625,0.33659398555755615,0.4983910024166107,0.14094099402427673
1722584693926368300,2.5633681640625,0.6303730010986328,0.04843899980187416,-0.10488499701023102
1722584693936345900,2.573345947265625,0.6303730010986328,0.04843899980187416,-0.10488499701023102
1722584693946324700,2.58332470703125,0.39435601234436035,0.6779559850692749,-0.10417400300502777
1722584693956304000,2.593303955078125,0.39435601234436035,0.6779559850692749,-0.10417400300502777
1722584693966290400,2.60329052734375,-0.24894000589847565,-1.8263360261917114,-1.1171400547027588
1722584693976277200,2.61327734375,-0.24894000589847565,-1.8263360261917114,-1.1171400547027588
1722584693986269200,2.623269287109375,-0.39765501022338867,0.2833560109138489,-0.07272700220346451
1722584693996261400,2.633261474609375,-0.39765501022338867,0.2833560109138489,-0.07272700220346451
1722584694006252500,2.64325244140625,0.22880199551582336,-0.26256999373435974,-0.27094900608062744
1722584694016243700,2.65324365234375,0.22880199551582336,-0.26256999373435974,-0.27094900608062744
1722584694026238700,2.66323876953125,0.8528839945793152,1.8490029573440552,0.6049720048904419
1722584694036233500,2.6732333984375,0.8528839945793152,1.8490029573440552,0.6049720048904419
1722584694046212000,2.683212158203125,-0.7165380120277405,0.2835099995136261,-0.44239598512649536
1722584694056191000,2.69319091796875,-0.7165380120277405,0.2835099995136261,-0.44239598512649536
1722584694066174000,2.703174072265625,0.07389599829912186,-0.9713940024375916,-0.49117299914360046
1722584694076157000,2.713156982421875,0.07389599829912186,-0.9713940024375916,-0.49117299914360046
1722584694086127900,2.7231279296875,1.0823299884796143,0.9884020090103149,0.8535990118980408
1722584694096099000,2.73309912109375,1.0823299884796143,0.9884020090103149,0.8535990118980408
1722584694106075100,2.7430751953125,-0.559132993221283,0.0434270016849041,0.33671000599861145
1722584694116051200,2.75305126953125,-0.559132993221283,0.0434270016849041,0.33671000599861145
1722584694126026500,2.763026611328125,0.24346399307250977,0.4301869869232178,0.25014200806617737
1722584694136001800,2.773001708984375,0.24346399307250977,0.4301869869232178,0.25014200806617737
1722584694145981200,2.782981201171875,-0.22224199771881104,0.1105170026421547,0.0668179988861084
1722584694155960600,2.792960693359375,-0.22224199771881104,0.1105170026421547,0.0668179988861084
1722584694165947000,2.80294677734375,0.17839699983596802,-0.36919599771499634,-0.41293099522590637
1722584694175933400,2.812933349609375,0.17839699983596802,-0.36919599771499634,-0.41293099522590637
1722584694185910000,2.822909912109375,0.3457370102405548,0.8006269931793213,0.33965200185775757
1722584694195886300,2.83288623046875,0.3457370102405548,0.8006269931793213,0.33965200185775757
1722584694205856800,2.842856689453125,-0.5200549960136414,-0.06049700081348419,-0.0636110007762909
1722584694215827000,2.852826904296875,-0.5200549960136414,-0.06049700081348419,-0.0636110007762909
1722584694225815600,2.862815673828125,0.7511259913444519,-0.21275800466537476,-0.6367009878158569
1722584694235804400,2.872804443359375,0.7511259913444519,-0.21275800466537476,-0.6367009878158569
1722584694245784600,2.88278466796875,-0.04206399992108345,-1.000599980354309,-0.390502005815506
1722584694255765000,2.892764892578125,-0.04206399992108345,-1.000599980354309,-0.390502005815506
1722584694265729800,2.902729736328125,0.10795000195503235,-0.052976999431848526,-0.44238999485969543
1722584694275694300,2.9126943359375,0.10795000195503235,-0.052976999431848526,-0.44238999485969543
1722584694285672400,2.92267236328125,0.40046998858451843,-0.19120700657367706,-0.787056028842926
1722584694295650600,2.932650634765625,0.40046998858451843,-0.19120700657367706,-0.787056028842926
1722584694305643000,2.94264306640625,0.1996069997549057,-1.5048279762268066,-1.0298279523849487
1722584694315635700,2.9526357421875,0.1996069997549057,-1.5048279762268066,-1.0298279523849487
1722584694325613000,2.962613037109375,1.0069760084152222,1.1802730560302734,0.5928189754486084
1722584694335590100,2.972590087890625,1.0069760084152222,1.1802730560302734,0.5928189754486084
1722584694345565400,2.9825654296875,0.4864419996738434,-0.18883399665355682,0.3456520140171051
1722584694355540700,2.992540771484375,0.4864419996738434,-0.18883399665355682,0.3456520140171051
1722584694365525500,3.002525390625,0.03582099825143814,-0.6327400207519531,0.38484999537467957
1722584694375510500,3.012510498046875,0.03582099825143814,-0.6327400207519531,0.38484999537467957
1722584694385490700,3.02249072265625,0.6869540214538574,0.5874699950218201,0.4787540137767792
1722584694395470800,3.032470947265625,0.6869540214538574,0.5874699950218201,0.4787540137767792
1722584694405450500,3.042450439453125,0.3191460072994232,-0.3981209993362427,0.29096999764442444
1722584694415430000,3.052429931640625,0.3191460072994232,-0.3981209993362427,0.29096999764442444
1722584694425416400,3.06241650390625,0.504006028175354,0.029451999813318253,0.006432999856770039
1722584694435402800,3.07240283203125,0.504006028175354,0.029451999813318253,0.006432999856770039
1722584694445382100,3.082382080078125,0.5456650257110596,0.4385949969291687,0.26813000440597534
1722584694455361500,3.092361572265625,0.5456650257110596,0.4385949969291687,0.26813000440597534
1722584694465338000,3.102338134765625,0.033622000366449356,-1.3359570503234863,-0.6239849925041199
1722584694475314700,3.112314697265625,0.033622000366449356,-1.3359570503234863,-0.6239849925041199
1722584694485304300,3.12230419921875,0.5575529932975769,0.8788300156593323,0.2922559976577759
1722584694495294000,3.1322939453125,0.5575529932975769,0.8788300156593323,0.2922559976577759
1722584694505262600,3.1422626953125,0.12385500222444534,-0.6642199754714966,-0.2606320083141327
1722584694515231200,3.152231201171875,0.12385500222444534,-0.6642199754714966,-0.2606320083141327
1722584694525219000,3.162218994140625,0.08287099748849869,-0.09604299813508987,-0.10060299932956696
1722584694535206700,3.17220654296875,0.08287099748849869,-0.09604299813508987,-0.10060299932956696
1722584694545169200,3.182169189453125,0.050374001264572144,0.7121679782867432,0.4540320038795471
1722584694555131600,3.192131591796875,0.050374001264572144,0.7121679782867432,0.4540320038795471
1722584694565110300,3.2021103515625,-0.20821399986743927,-1.0025019645690918,-0.16561399400234222
1722584694575088600,3.212088623046875,-0.20821399986743927,-1.0025019645690918,-0.16561399400234222
1722584694585077500,3.222077392578125,-0.0763309970498085,-0.05270899832248688,0.39690300822257996
1722584694595066400,3.23206640625,-0.0763309970498085,-0.05270899832248688,0.39690300822257996
1722584694605055500,3.242055419921875,-0.31125301122665405,0.19466599822044373,0.228426992893219
1722584694615044600,3.252044677734375,-0.31125301122665405,0.19466599822044373,0.228426992893219
1722584694625024800,3.262024658203125,-0.07144899666309357,0.42268800735473633,0.37094300985336304
1722584694635005000,3.2720048828125,-0.07144899666309357,0.42268800735473633,0.37094300985336304
1722584694644989200,3.2819892578125,-0.05905799940228462,0.10412000119686127,0.09238599985837936
1722584694654973700,3.2919736328125,-0.05905799940228462,0.10412000119686127,0.09238599985837936
1722584694664966400,3.30196630859375,0.18472500145435333,0.09858399629592896,0.06262499839067459
1722584694674959000,3.311958984375,0.18472500145435333,0.09858399629592896,0.06262499839067459
1722584694684922400,3.32192236328125,-0.34602200984954834,0.009812000207602978,-0.2728089988231659
1722584694694886000,3.331885986328125,-0.34602200984954834,0.009812000207602978,-0.2728089988231659
1722584694704860000,3.34185986328125,0.06676500290632248,-0.08146599680185318,-0.20699100196361542
1722584694714834200,3.351834228515625,0.06676500290632248,-0.08146599680185318,-0.20699100196361542
1722584694724798000,3.3617978515625,0.23632599413394928,0.8471900224685669,0.1812870055437088
1722584694734762000,3.371761962890625,0.23632599413394928,0.8471900224685669,0.1812870055437088
1722584694744740600,3.38174072265625,-0.13119100034236908,-0.4140239953994751,0.019802000373601913
1722584694754719000,3.391718994140625,-0.13119100034236908,-0.4140239953994751,0.019802000373601913
1722584694764705800,3.401705810546875,0.10710799694061279,-0.02329299971461296,-0.04091599956154823
1722584694774692400,3.4116923828125,0.10710799694061279,-0.02329299971461296,-0.04091599956154823
1722584694784680000,3.421679931640625,0.028359999880194664,-0.10711999982595444,0.035578999668359756
1722584694794667800,3.431667724609375,0.028359999880194664,-0.10711999982595444,0.035578999668359756
1722584694804646000,3.44164599609375,0.25939199328422546,0.6011819839477539,0.04125199839472771
1722584694814623700,3.451623779296875,0.25939199328422546,0.6011819839477539,0.04125199839472771
1722584694824601900,3.461601806640625,-0.2845360040664673,0.2872599959373474,0.20772600173950195
1722584694834580000,3.471580078125,-0.2845360040664673,0.2872599959373474,0.20772600173950195
1722584694844557800,3.481557861328125,0.2625400125980377,0.3677709996700287,-0.10802800208330154
1722584694854535700,3.49153564453125,0.2625400125980377,0.3677709996700287,-0.10802800208330154
1722584694864511000,3.501510986328125,0.03524300083518028,0.20201900601387024,0.0378119982779026
1722584694874486300,3.511486328125,0.03524300083518028,0.20201900601387024,0.0378119982779026
1722584694884464400,3.52146435546875,-0.2735849916934967,-0.8901600241661072,-0.3446420133113861
1722584694894442500,3.5314423828125,-0.2735849916934967,-0.8901600241661072,-0.3446420133113861
1722584694904429600,3.5414296875,-0.2654989957809448,0.19467000663280487,-0.1936980038881302
1722584694914416400,3.55141650390625,-0.2654989957809448,0.19467000663280487,-0.1936980038881302
1722584694924384800,3.561384765625,0.3710240125656128,0.038780998438596725,0.042040999978780746
1722584694934353200,3.571353271484375,0.3710240125656128,0.038780998438596725,0.042040999978780746
1722584694944340700,3.5813408203125,0.22171500325202942,-0.04368500038981438,0.051635000854730606
1722584694954328600,3.59132861328125,0.22171500325202942,-0.04368500038981438,0.051635000854730606
1722584694964319700,3.60131982421875,-0.4946269989013672,-0.35271599888801575,-0.08708199858665466
1722584694974310700,3.611310546875,-0.4946269989013672,-0.35271599888801575,-0.08708199858665466
1722584694984299500,3.621299560546875,-0.268667995929718,0.19491100311279297,0.07244300097227097
1722584694994288600,3.63128857421875,-0.268667995929718,0.19491100311279297,0.07244300097227097
1722584695004277000,3.641277099609375,0.5892959833145142,0.1946299970149994,0.16125300526618958
1722584695014265000,3.65126513671875,0.5892959833145142,0.1946299970149994,0.16125300526618958
1722584695024250600,3.661250732421875,0.1253799945116043,0.35837000608444214,0.1650329977273941
1722584695034236200,3.671236083984375,0.1253799945116043,0.35837000608444214,0.1650329977273941
1722584695044223700,3.6812236328125,-0.5758399963378906,1.0626989603042603,0.24261899292469025
1722584695054211000,3.691211181640625,-0.5758399963378906,1.0626989603042603,0.24261899292469025
1722584695064187000,3.701186767578125,0.7038170099258423,1.0476369857788086,0.31143298745155334
1722584695074163000,3.711162841796875,0.7038170099258423,1.0476369857788086,0.31143298745155334
1722584695084126000,3.7211259765625,0.18569500744342804,-0.38385099172592163,-0.02085999958217144
1722584695094089000,3.7310888671875,0.18569500744342804,-0.38385099172592163,-0.02085999958217144
1722584695104066800,3.74106689453125,-0.26938000321388245,0.7754610180854797,0.10872200131416321
1722584695114044700,3.751044677734375,-0.26938000321388245,0.7754610180854797,0.10872200131416321
1722584695124024800,3.76102490234375,-0.006732999812811613,-0.8007400035858154,-0.45135098695755005
1722584695134005000,3.7710048828125,-0.006732999812811613,-0.8007400035858154,-0.45135098695755005
1722584695143985700,3.780985595703125,0.47189998626708984,1.3151099681854248,0.4635719954967499
1722584695153966000,3.790966064453125,0.47189998626708984,1.3151099681854248,0.4635719954967499
1722584695163958000,3.8009580078125,0.33389800786972046,-0.3397650122642517,-0.07643800228834152
1722584695173949700,3.81094970703125,0.33389800786972046,-0.3397650122642517,-0.07643800228834152
1722584695183940900,3.82094091796875,1.1948670148849487,0.8301860094070435,1.1538740396499634
1722584695193931800,3.830931884765625,1.1948670148849487,0.8301860094070435,1.1538740396499634
1722584695203918300,3.84091845703125,-0.5403779745101929,-0.3375000059604645,-0.5713980197906494
1722584695213905200,3.8509052734375,-0.5403779745101929,-0.3375000059604645,-0.5713980197906494
1722584695223869700,3.86086962890625,-1.260280966758728,-0.8068720102310181,-0.41565001010894775
1722584695233834500,3.87083447265625,-1.260280966758728,-0.8068720102310181,-0.41565001010894775
1722584695243815200,3.880815185546875,0.0003549999964889139,1.0087029933929443,0.6489359736442566
1722584695253795600,3.890795654296875,0.0003549999964889139,1.0087029933929443,0.6489359736442566
1722584695263768600,3.9007685546875,0.23432399332523346,0.06801900267601013,0.018864000216126442
1722584695273741600,3.910741455078125,0.23432399332523346,0.06801900267601013,0.018864000216126442
1722584695283732700,3.920732666015625,0.7040020227432251,0.6092990040779114,-0.458081990480423
1722584695293724000,3.930723876953125,0.7040020227432251,0.6092990040779114,-0.458081990480423
1722584695303713800,3.9407138671875,0.9553850293159485,-0.5791419744491577,-0.004530000034719706
1722584695313704000,3.950703857421875,0.9553850293159485,-0.5791419744491577,-0.004530000034719706
1722584695323669000,3.9606689453125,0.5586990118026733,-0.7279760241508484,-0.15312500298023224
1722584695333634300,3.97063427734375,0.5586990118026733,-0.7279760241508484,-0.15312500298023224
1722584695343615000,3.980614990234375,-1.8037199974060059,0.4469060003757477,-0.07982400059700012
1722584695353596000,3.990595947265625,-1.8037199974060059,0.4469060003757477,-0.07982400059700012
1722584695363574300,4.00057421875,0.8539860248565674,0.7670530080795288,0.09307900071144104
1722584695373553000,4.010552978515625,0.8539860248565674,0.7670530080795288,0.09307900071144104
1722584695383535000,4.02053515625,0.2838889956474304,-1.4111939668655396,-0.3664979934692383
1722584695393517000,4.03051708984375,0.2838889956474304,-1.4111939668655396,-0.3664979934692383
1722584695403483600,4.040483642578125,-1.3196879625320435,-1.1661360263824463,-0.18619999289512634
1722584695413450000,4.050449951171875,-1.3196879625320435,-1.1661360263824463,-0.18619999289512634
1722584695423416300,4.060416259765625,0.24308200180530548,0.9683110117912292,-0.09002800285816193
1722584695433382700,4.070382568359375,0.24308200180530548,0.9683110117912292,-0.09002800285816193
1722584695443361500,4.080361572265625,0.4753060042858124,-0.21763500571250916,-0.3884269893169403
1722584695453340200,4.090340087890625,0.4753060042858124,-0.21763500571250916,-0.3884269893169403
1722584695463330000,4.100330078125,0.0802759975194931,0.02696800045669079,0.2526029944419861
1722584695473320000,4.11031982421875,0.0802759975194931,0.02696800045669079,0.2526029944419861
1722584695483306500,4.120306396484375,-0.5495749711990356,0.8047959804534912,0.2644509971141815
1722584695493293300,4.130293212890625,-0.5495749711990356,0.8047959804534912,0.2644509971141815
1722584695503273500,4.1402734375,0.07942499965429306,-0.9132350087165833,-0.3526510000228882
1722584695513253600,4.150253662109375,0.07942499965429306,-0.9132350087165833,-0.3526510000228882
1722584695523245600,4.16024560546875,1.2496579885482788,0.25848400592803955,0.1987520009279251
1722584695533237500,4.170237548828125,1.2496579885482788,0.25848400592803955,0.1987520009279251
1722584695543222800,4.180222900390625,-0.9499880075454712,-0.050960998982191086,-0.028602000325918198
1722584695553208300,4.190208251953125,-0.9499880075454712,-0.050960998982191086,-0.028602000325918198
1722584695563197200,4.200197265625,0.068852998316288,0.4273419976234436,-0.02873300015926361
1722584695573186300,4.210186279296875,0.068852998316288,0.4273419976234436,-0.02873300015926361
1722584695583163400,4.220163330078125,0.7760969996452332,-0.04859599843621254,0.11721400171518326
1722584695593140500,4.230140380859375,0.7760969996452332,-0.04859599843621254,0.11721400171518326
1722584695603133000,4.2401328125,-0.025335999205708504,0.5030890107154846,0.1146330013871193
1722584695613125400,4.25012548828125,-0.025335999205708504,0.5030890107154846,0.1146330013871193
1722584695623112200,4.2601123046875,-0.4954110085964203,0.5890430212020874,-0.03799699991941452
1722584695633099000,4.27009912109375,-0.4954110085964203,0.5890430212020874,-0.03799699991941452
1722584695643084000,4.280083984375,0.4482479989528656,-0.35290199518203735,-0.04089200124144554
1722584695653069000,4.290069091796875,0.4482479989528656,-0.35290199518203735,-0.04089200124144554
1722584695663052300,4.30005224609375,0.6034150123596191,0.5838479995727539,0.10678199678659439
1722584695673035300,4.31003515625,0.6034150123596191,0.5838479995727539,0.10678199678659439
1722584695683019800,4.320019775390625,-0.6470810174942017,-0.20757900178432465,-0.2898379862308502
1722584695693004300,4.33000439453125,-0.6470810174942017,-0.20757900178432465,-0.2898379862308502
1722584695702986500,4.339986572265625,0.0629969984292984,-0.5218909978866577,0.022738000378012657
1722584695712968700,4.34996875,0.0629969984292984,-0.5218909978866577,0.022738000378012657
1722584695722958600,4.35995849609375,0.7713630199432373,0.5812690258026123,0.18673500418663025
1722584695732948200,4.3699482421875,0.7713630199432373,0.5812690258026123,0.18673500418663025
1722584695742936000,4.37993603515625,-0.40565600991249084,0.3529979884624481,-0.1249610036611557
1722584695752924000,4.389923828125,-0.40565600991249084,0.3529979884624481,-0.1249610036611557
1722584695762913300,4.399913330078125,0.2162960022687912,0.1921669989824295,0.10854099690914154
1722584695772902400,4.40990234375,0.2162960022687912,0.1921669989824295,0.10854099690914154
1722584695782891000,4.41989111328125,0.27988898754119873,-0.11851400136947632,0.028334999457001686
1722584695792879600,4.429879638671875,0.27988898754119873,-0.11851400136947632,0.028334999457001686
1722584695802869800,4.439869873046875,-0.19019100069999695,-0.3459939956665039,-0.12064100056886673
1722584695812859600,4.449859619140625,-0.19019100069999695,-0.3459939956665039,-0.12064100056886673
1722584695822836200,4.459836181640625,-0.11503399908542633,-0.19230499863624573,0.11050000041723251
1722584695832812500,4.4698125,-0.11503399908542633,-0.19230499863624573,0.11050000041723251
1722584695842801200,4.47980126953125,-0.36364099383354187,-0.34010300040245056,-0.20302000641822815
1722584695852789500,4.48978955078125,-0.36364099383354187,-0.34010300040245056,-0.20302000641822815
1722584695862778400,4.4997783203125,0.5013870000839233,-0.022912999615073204,0.19147300720214844
1722584695872767200,4.509767333984375,0.5013870000839233,-0.022912999615073204,0.19147300720214844
1722584695882753800,4.51975390625,-0.7750179767608643,-0.33050400018692017,-0.285535991191864
1722584695892740600,4.52974072265625,-0.7750179767608643,-0.33050400018692017,-0.285535991191864
1722584695902728400,4.539728515625,0.48386698961257935,-0.3259510099887848,0.27260199189186096
1722584695912716500,4.549716552734375,0.48386698961257935,-0.3259510099887848,0.27260199189186096
1722584695922700800,4.55970068359375,-0.4602540135383606,-0.17359499633312225,-0.04118100181221962
1722584695932685300,4.569685302734375,-0.4602540135383606,-0.17359499633312225,-0.04118100181221962
1722584695942677000,4.579677001953125,0.3126559853553772,-0.1715790033340454,-0.04154499992728233
1722584695952668700,4.589668701171875,0.3126559853553772,-0.1715790033340454,-0.04154499992728233
1722584695962656000,4.599656005859375,-0.3177439868450165,-0.08759800344705582,0.026146000251173973
1722584695972643000,4.60964306640625,-0.3177439868450165,-0.08759800344705582,0.026146000251173973
1722584695982618600,4.61961865234375,0.30428099632263184,-0.39820799231529236,0.1067420020699501
1722584695992594400,4.629594482421875,0.30428099632263184,-0.39820799231529236,0.1067420020699501
1722584696002585300,4.63958544921875,-0.7213979959487915,0.4760740101337433,0.10258500277996063
1722584696012576300,4.649576171875,-0.7213979959487915,0.4760740101337433,0.10258500277996063
1722584696022564400,4.659564453125,0.7747009992599487,0.16425499320030212,-0.05229000002145767
1722584696032552400,4.669552490234375,0.7747009992599487,0.16425499320030212,-0.05229000002145767
1722584696042535400,4.679535400390625,-0.47937700152397156,-0.4752010107040405,-0.1367889940738678
1722584696052518400,4.689518310546875,-0.47937700152397156,-0.4752010107040405,-0.1367889940738678
1722584696062506000,4.699506103515625,0.14471399784088135,-0.6235349774360657,-0.13873299956321716
1722584696072493600,4.70949365234375,0.14471399784088135,-0.6235349774360657,-0.13873299956321716
1722584696082483700,4.719483642578125,-1.2738699913024902,-0.1592720001935959,-0.1381710022687912
1722584696092474000,4.72947412109375,-1.2738699913024902,-0.1592720001935959,-0.1381710022687912
1722584696102451000,4.739450927734375,1.0009939670562744,-0.15973800420761108,-0.2124740034341812
1722584696112427500,4.749427490234375,1.0009939670562744,-0.15973800420761108,-0.2124740034341812
1722584696122414800,4.759414794921875,-0.1724810004234314,0.31755998730659485,-0.03422600030899048
1722584696132402000,4.76940185546875,-0.1724810004234314,0.31755998730659485,-0.03422600030899048
1722584696142394600,4.77939453125,-0.8077359795570374,0.3956049978733063,-0.26058799028396606
1722584696152387000,4.789386962890625,-0.8077359795570374,0.3956049978733063,-0.26058799028396606
1722584696162376700,4.799376708984375,0.5374119877815247,0.7021290063858032,0.23213300108909607
1722584696172366600,4.80936669921875,0.5374119877815247,0.7021290063858032,0.23213300108909607
1722584696182341400,4.81934130859375,1.1116729974746704,0.2974669933319092,0.2421099990606308
1722584696192316200,4.829316162109375,1.1116729974746704,0.2974669933319092,0.2421099990606308
1722584696202303700,4.8393037109375,-2.0060219764709473,0.3621079921722412,0.24974100291728973
1722584696212291300,4.849291259765625,-2.0060219764709473,0.3621079921722412,0.24974100291728973
1722584696222284300,4.8592841796875,-0.1499280035495758,1.0439660549163818,0.08844199776649475
1722584696232277000,4.869277099609375,-0.1499280035495758,1.0439660549163818,0.08844199776649475
1722584696242269200,4.879269287109375,1.626181960105896,0.4584279954433441,0.3907969892024994
1722584696252261400,4.889261474609375,1.626181960105896,0.4584279954433441,0.3907969892024994
1722584696262255400,4.89925537109375,0.15808500349521637,0.2917400002479553,0.29542699456214905
1722584696272249600,4.90924951171875,0.15808500349521637,0.2917400002479553,0.29542699456214905
1722584696282234000,4.919234130859375,-0.8427320122718811,0.36228498816490173,-0.13062800467014313
1722584696292218600,4.929218505859375,-0.8427320122718811,0.36228498816490173,-0.13062800467014313
1722584696302184700,4.939184814453125,1.5317820310592651,0.5838329792022705,0.30574798583984375
1722584696312150500,4.949150634765625,1.5317820310592651,0.5838329792022705,0.30574798583984375
1722584696322128100,4.959128173828125,0.12576499581336975,0.26505300402641296,0.21373100578784943
1722584696332105700,4.969105712890625,0.12576499581336975,0.26505300402641296,0.21373100578784943
1722584696342085600,4.979085693359375,-0.6499969959259033,0.34707900881767273,-0.4314720034599304
1722584696352065300,4.989065185546875,-0.6499969959259033,0.34707900881767273,-0.4314720034599304
1722584696362040000,4.9990400390625,0.9949079751968384,-0.9172109961509705,-0.21367399394512177
1722584696372014800,5.009014892578125,0.9949079751968384,-0.9172109961509705,-0.21367399394512177
1722584696381995500,5.01899560546875,0.11219599843025208,-0.03854599967598915,0.1744219958782196
1722584696391976200,5.02897607421875,0.11219599843025208,-0.03854599967598915,0.1744219958782196
1722584696401949000,5.038948974609375,-0.29300200939178467,0.057704001665115356,-0.07129000127315521
1722584696411921400,5.04892138671875,-0.29300200939178467,0.057704001665115356,-0.07129000127315521
1722584696421899800,5.058899658203125,0.2268189936876297,0.45407000184059143,0.09600800275802612
1722584696431878000,5.0688779296875,0.2268189936876297,0.45407000184059143,0.09600800275802612
1722584696441852400,5.078852294921875,0.21087899804115295,0.15003100037574768,-0.28802400827407837
1722584696451826700,5.08882666015625,0.21087899804115295,0.15003100037574768,-0.28802400827407837
1722584696461813500,5.0988134765625,0.649524986743927,-1.0072400569915771,-0.42193400859832764
1722584696471800300,5.10880029296875,0.649524986743927,-1.0072400569915771,-0.42193400859832764
1722584696481789400,5.11878955078125,-0.8560090065002441,0.10798799991607666,0.21728000044822693
1722584696491778600,5.128778564453125,-0.8560090065002441,0.10798799991607666,0.21728000044822693
1722584696501755600,5.138755615234375,0.30768901109695435,0.11209399998188019,-0.32976600527763367
1722584696511732500,5.148732421875,0.30768901109695435,0.11209399998188019,-0.32976600527763367
1722584696521707800,5.158707763671875,0.7765920162200928,-0.44225001335144043,-0.07113900035619736
1722584696531683000,5.16868310546875,0.7765920162200928,-0.44225001335144043,-0.07113900035619736
1722584696541672700,5.178672607421875,-1.194654941558838,-0.5188450217247009,-0.44849199056625366
1722584696551662300,5.188662353515625,-1.194654941558838,-0.5188450217247009,-0.44849199056625366
1722584696561640700,5.198640625,0.5234100222587585,0.4404839873313904,-0.03067599982023239
1722584696571619000,5.208619140625,0.5234100222587585,0.4404839873313904,-0.03067599982023239
1722584696581607200,5.218607177734375,0.8266940116882324,0.4455600082874298,0.36779099702835083
1722584696591595000,5.228594970703125,0.8266940116882324,0.4455600082874298,0.36779099702835083
1722584696601581600,5.23858154296875,-0.05695199966430664,-0.024769999086856842,-0.16423200070858002
1722584696611567900,5.24856787109375,-0.05695199966430664,-0.024769999086856842,-0.16423200070858002
1722584696621542400,5.25854248046875,-0.38225799798965454,0.5265660285949707,0.24092300236225128
1722584696631516700,5.2685166015625,-0.38225799798965454,0.5265660285949707,0.24092300236225128
1722584696641481500,5.2784814453125,0.32525700330734253,-0.24963200092315674,-0.06689099967479706
1722584696651446300,5.2884462890625,0.32525700330734253,-0.24963200092315674,-0.06689099967479706
1722584696661419000,5.2984189453125,0.1760520040988922,-0.10018199682235718,-0.06661500036716461
1722584696671392000,5.30839208984375,0.1760520040988922,-0.10018199682235718,-0.06661500036716461
1722584696681381600,5.318381591796875,-0.7801499962806702,-0.016625000163912773,-0.07099200040102005
1722584696691371000,5.32837109375,-0.7801499962806702,-0.016625000163912773,-0.07099200040102005
1722584696701359600,5.338359619140625,0.09096399694681168,-0.09787900000810623,0.008167999796569347
1722584696711348200,5.34834814453125,0.09096399694681168,-0.09787900000810623,0.008167999796569347
1722584696721326000,5.358326171875,0.4084619879722595,-0.018515000119805336,0.23758800327777863
1722584696731303700,5.3683037109375,0.4084619879722595,-0.018515000119805336,0.23758800327777863
1722584696741270300,5.378270263671875,-0.2974259853363037,0.45694199204444885,-0.0782419964671135
1722584696751236900,5.38823681640625,-0.2974259853363037,0.45694199204444885,-0.0782419964671135
1722584696761226000,5.39822607421875,-0.1280529946088791,-0.33638399839401245,0.06928099691867828
1722584696771215000,5.408215087890625,-0.1280529946088791,-0.33638399839401245,0.06928099691867828
1722584696781194200,5.4181943359375,0.2616110146045685,-0.02784699946641922,0.06689999997615814
1722584696791173000,5.428173095703125,0.2616110146045685,-0.02784699946641922,0.06689999997615814
1722584696801150500,5.438150390625,-0.11715199798345566,-0.2607649862766266,-0.0861010029911995
1722584696811127800,5.4481279296875,-0.11715199798345566,-0.2607649862766266,-0.0861010029911995
1722584696821119200,5.458119140625,-0.19806000590324402,0.2837750017642975,0.05944899842143059
1722584696831110700,5.468110595703125,-0.19806000590324402,0.2837750017642975,0.05944899842143059
1722584696841077800,5.478077880859375,0.34822899103164673,0.13323800265789032,-0.011876000091433525
1722584696851045000,5.488045166015625,0.34822899103164673,0.13323800265789032,-0.011876000091433525
1722584696861025000,5.49802490234375,0.19482000172138214,-0.10974700003862381,-0.013604000210762024
1722584696871005200,5.508005126953125,0.19482000172138214,-0.10974700003862381,-0.013604000210762024
1722584696880970000,5.517969970703125,-0.436939001083374,-0.024911999702453613,-0.014878000132739544
1722584696890935000,5.52793505859375,-0.436939001083374,-0.024911999702453613,-0.014878000132739544
1722584696900926700,5.5379267578125,-0.058299001306295395,-0.10508599877357483,-0.17731599509716034
1722584696910918400,5.54791845703125,-0.058299001306295395,-0.10508599877357483,-0.17731599509716034
1722584696920891000,5.557890869140625,0.498322993516922,0.05932899937033653,0.21949900686740875
1722584696930863600,5.567863525390625,0.498322993516922,0.05932899937033653,0.21949900686740875
1722584696940847600,5.57784765625,-0.6871320009231567,-0.022161999717354774,-0.09262999892234802
1722584696950831900,5.587831787109375,-0.6871320009231567,-0.022161999717354774,-0.09262999892234802
1722584696960817000,5.59781689453125,0.18751700222492218,0.057806000113487244,0.13960599899291992
1722584696970802000,5.607802001953125,0.18751700222492218,0.057806000113487244,0.13960599899291992
1722584696980787700,5.61778759765625,0.3408220112323761,-0.18940900266170502,-0.0915910005569458
1722584696990773500,5.6277734375,0.3408220112323761,-0.18940900266170502,-0.0915910005569458
1722584697000752400,5.63775244140625,-0.28552600741386414,-0.2576259970664978,-0.009765000082552433
1722584697010731000,5.64773095703125,-0.28552600741386414,-0.2576259970664978,-0.009765000082552433
1722584697020707800,5.657707763671875,-0.05535700172185898,0.2063630074262619,0.1380849927663803
1722584697030685000,5.667684814453125,-0.05535700172185898,0.2063630074262619,0.1380849927663803
1722584697040652300,5.67765234375,-0.05502299964427948,0.20635099709033966,0.05242500081658363
1722584697050620000,5.687619873046875,-0.05502299964427948,0.20635099709033966,0.05242500081658363
1722584697060587300,5.697587158203125,0.734050989151001,0.4522860050201416,0.12896299362182617
1722584697070554600,5.7075546875,0.734050989151001,0.4522860050201416,0.12896299362182617
1722584697080535800,5.717535888671875,-0.8324019908905029,0.057507000863552094,-0.3372749984264374
1722584697090516700,5.727516845703125,-0.8324019908905029,0.057507000863552094,-0.3372749984264374
1722584697100507400,5.73750732421875,0.7427060008049011,0.5972089767456055,-0.02440899983048439
1722584697110498300,5.747498291015625,0.7427060008049011,0.5972089767456055,-0.02440899983048439
1722584697120477400,5.7574775390625,-0.41024601459503174,0.4364829957485199,-0.2673009932041168
1722584697130456600,5.76745654296875,-0.41024601459503174,0.4364829957485199,-0.2673009932041168
1722584697140432100,5.77743212890625,0.3845059871673584,0.18011699616909027,0.05352000147104263
1722584697150408000,5.787407958984375,0.3845059871673584,0.18011699616909027,0.05352000147104263
1722584697160376800,5.797376953125,-0.3073590099811554,0.48284000158309937,-0.3922559916973114
1722584697170346000,5.807345947265625,-0.3073590099811554,0.48284000158309937,-0.3922559916973114
1722584697180330500,5.81733056640625,0.4943070113658905,-0.6152349710464478,-0.2810409963130951
1722584697190315300,5.827315185546875,0.4943070113658905,-0.6152349710464478,-0.2810409963130951
1722584697200294400,5.83729443359375,-0.5203409790992737,-0.7843419909477234,-0.020678000524640083
1722584697210273500,5.8472734375,-0.5203409790992737,-0.7843419909477234,-0.020678000524640083
1722584697220261400,5.857261474609375,-0.054228998720645905,-1.406093955039978,-0.552299976348877
1722584697230249200,5.867249267578125,-0.054228998720645905,-1.406093955039978,-0.552299976348877
1722584697240218000,5.877218017578125,0.617730975151062,0.8805299997329712,0.11175300180912018
1722584697250186800,5.887186767578125,0.617730975151062,0.8805299997329712,0.11175300180912018
1722584697260163800,5.897163818359375,-1.368934988975525,-0.9035050272941589,0.4425849914550781
1722584697270141200,5.90714111328125,-1.368934988975525,-0.9035050272941589,0.4425849914550781
1722584697280117000,5.917116943359375,1.2772799730300903,0.5125430226325989,0.9006649851799011
1722584697290093000,5.927093017578125,1.2772799730300903,0.5125430226325989,0.9006649851799011
1722584697300069400,5.9370693359375,-2.4251420497894287,-0.6514790058135986,0.12656599283218384
1722584697310045700,5.947045654296875,-2.4251420497894287,-0.6514790058135986,0.12656599283218384
1722584697320022300,5.957022216796875,1.185817003250122,0.6839810013771057,-0.06250300258398056
1722584697329999000,5.9669990234375,1.185817003250122,0.6839810013771057,-0.06250300258398056
1722584697339989800,5.97698974609375,0.41633400321006775,0.2876800000667572,0.9801269769668579
1722584697349980400,5.98698046875,0.41633400321006775,0.2876800000667572,0.9801269769668579
1722584697359967500,5.996967529296875,-0.8206700086593628,-0.890163004398346,-0.247747004032135
1722584697369954300,6.006954345703125,-0.8206700086593628,-0.890163004398346,-0.247747004032135
1722584697379942700,6.016942626953125,0.28158101439476013,-0.6640999913215637,-0.834909975528717
1722584697389930800,6.0269306640625,0.28158101439476013,-0.6640999913215637,-0.834909975528717
1722584697399916300,6.036916259765625,-0.40443798899650574,-0.5181270241737366,0.3749940097332001
1722584697409901600,6.046901611328125,-0.40443798899650574,-0.5181270241737366,0.3749940097332001
1722584697419877600,6.056877685546875,0.7680360078811646,0.43505600094795227,-0.08534099906682968
1722584697429853700,6.066853759765625,0.7680360078811646,0.43505600094795227,-0.08534099906682968
1722584697439819500,6.076819580078125,-0.8919249773025513,-0.8928419947624207,-0.2459840029478073
1722584697449785300,6.086785400390625,-0.8919249773025513,-0.8928419947624207,-0.2459840029478073
1722584697459760400,6.096760498046875,1.0472290515899658,-0.49887099862098694,0.4585390090942383
1722584697469735200,6.106735107421875,1.0472290515899658,-0.49887099862098694,0.4585390090942383
1722584697479712500,6.11671240234375,-0.8518540263175964,1.5551600456237793,0.2496969997882843
1722584697489689900,6.12668994140625,-0.8518540263175964,1.5551600456237793,0.2496969997882843
1722584697499654100,6.136654052734375,0.6140270233154297,-2.670154094696045,-0.6977949738502502
1722584697509618200,6.1466181640625,0.6140270233154297,-2.670154094696045,-0.6977949738502502
1722584697519610400,6.1566103515625,3.2853291034698486,-0.8936240077018738,1.7014080286026
1722584697529602600,6.1666025390625,3.2853291034698486,-0.8936240077018738,1.7014080286026
1722584697539592700,6.1765927734375,-2.994745969772339,-0.3010149896144867,0.024977000430226326
1722584697549582600,6.18658251953125,-2.994745969772339,-0.3010149896144867,0.024977000430226326
1722584697559560000,6.196559814453125,0.08007500320672989,-1.8347400426864624,-2.278095006942749
1722584697569537500,6.20653759765625,0.08007500320672989,-1.8347400426864624,-2.278095006942749
1722584697579526400,6.2165263671875,5.603044033050537,0.7345089912414551,3.0749669075012207
1722584697589515300,6.226515380859375,5.603044033050537,0.7345089912414551,3.0749669075012207
1722584697599503400,6.23650341796875,2.6883010864257812,-2.347209930419922,0.4258880019187927
1722584697609491500,6.246491455078125,2.6883010864257812,-2.347209930419922,0.4258880019187927
1722584697619481600,6.256481689453125,2.3407440185546875,-0.26003599166870117,-1.405819058418274
1722584697629471700,6.2664716796875,2.3407440185546875,-0.26003599166870117,-1.405819058418274
1722584697639458800,6.276458740234375,-2.8245179653167725,0.679062008857727,-1.2348929643630981
1722584697649446000,6.28644580078125,-2.8245179653167725,0.679062008857727,-1.2348929643630981
1722584697659435500,6.296435546875,0.857558012008667,-0.2759940028190613,1.0600169897079468
1722584697669425000,6.3064248046875,0.857558012008667,-0.2759940028190613,1.0600169897079468
1722584697679413800,6.316413818359375,3.4726719856262207,1.0854710340499878,1.0652589797973633
1722584697689402600,6.326402587890625,3.4726719856262207,1.0854710340499878,1.0652589797973633
1722584697699389400,6.336389404296875,2.012842893600464,-0.1689859926700592,-0.29139798879623413
1722584697709376000,6.3463759765625,2.012842893600464,-0.1689859926700592,-0.29139798879623413
1722584697719362300,6.3563623046875,1.6967560052871704,0.74092698097229,-0.1839590072631836
1722584697729348600,6.3663486328125,1.6967560052871704,0.74092698097229,-0.1839590072631836
1722584697739326500,6.376326416015625,-0.4243519902229309,1.8739789724349976,0.1262969970703125
1722584697749304000,6.386303955078125,-0.4243519902229309,1.8739789724349976,0.1262969970703125
1722584697759270100,6.396270263671875,-0.35446199774742126,0.3330270051956177,-0.18935799598693848
1722584697769236200,6.406236328125,-0.35446199774742126,0.3330270051956177,-0.18935799598693848
1722584697779217700,6.4162177734375,1.6487280130386353,0.6017159819602966,-0.1347620040178299
1722584697789199400,6.426199462890625,1.6487280130386353,0.6017159819602966,-0.1347620040178299
1722584697799177500,6.436177490234375,1.135910987854004,-0.6171029806137085,-0.6233959794044495
1722584697809155800,6.44615576171875,1.135910987854004,-0.6171029806137085,-0.6233959794044495
1722584697819134000,6.456134033203125,-1.9783320426940918,0.7314969897270203,-0.5134900212287903
1722584697829111800,6.46611181640625,-1.9783320426940918,0.7314969897270203,-0.5134900212287903
1722584697839090200,6.476090087890625,-1.6734299659729004,1.3367650508880615,-0.765608012676239
1722584697849068300,6.486068359375,-1.6734299659729004,1.3367650508880615,-0.765608012676239
1722584697859043000,6.49604296875,-0.4073669910430908,-0.7308670282363892,-0.22715400159358978
1722584697869017600,6.506017578125,-0.4073669910430908,-0.7308670282363892,-0.22715400159358978
1722584697879008500,6.516008544921875,1.3467860221862793,-0.9067339897155762,0.5858989953994751
1722584697888999400,6.52599951171875,1.3467860221862793,-0.9067339897155762,0.5858989953994751
1722584697898985200,6.535985107421875,0.4939039945602417,-1.2901920080184937,-0.7148119807243347
1722584697908971300,6.54597119140625,0.4939039945602417,-1.2901920080184937,-0.7148119807243347
1722584697918961400,6.55596142578125,-1.3602739572525024,1.289011001586914,0.19093500077724457
1722584697928951600,6.56595166015625,-1.3602739572525024,1.289011001586914,0.19093500077724457
1722584697938938400,6.5759384765625,1.0440620183944702,0.48350098729133606,0.35261300206184387
1722584697948925000,6.585925048828125,1.0440620183944702,0.48350098729133606,0.35261300206184387
1722584697958911700,6.595911865234375,-1.9799519777297974,-0.4691379964351654,0.4400559961795807
1722584697968898300,6.605898193359375,-1.9799519777297974,-0.4691379964351654,0.4400559961795807
1722584697978875000,6.615875,1.02211594581604,-0.07940199971199036,0.3337939977645874
1722584697988851700,6.625851806640625,1.02211594581604,-0.07940199971199036,0.3337939977645874
1722584697998830000,6.635830078125,-2.09614896774292,1.170320987701416,0.1555739939212799
1722584698008808400,6.645808349609375,-2.09614896774292,1.170320987701416,0.1555739939212799
1722584698018786000,6.6557861328125,-0.30403000116348267,0.2068450003862381,-0.1222279965877533
1722584698028763600,6.665763671875,-0.30403000116348267,0.2068450003862381,-0.1222279965877533
1722584698038753300,6.675753173828125,1.7308989763259888,-0.04828299954533577,0.8484449982643127
1722584698048742700,6.68574267578125,1.7308989763259888,-0.04828299954533577,0.8484449982643127
1722584698058731500,6.6957314453125,0.2177319973707199,-1.1688849925994873,0.04766299948096275
1722584698068720000,6.70572021484375,0.2177319973707199,-1.1688849925994873,0.04766299948096275
1722584698078706400,6.71570654296875,-0.5404719710350037,0.618478000164032,-0.6900389790534973
1722584698088692700,6.725692626953125,-0.5404719710350037,0.618478000164032,-0.6900389790534973
1722584698098680000,6.73568017578125,-0.44038501381874084,-0.3274550139904022,-0.0036750000435858965
1722584698108667400,6.74566748046875,-0.44038501381874084,-0.3274550139904022,-0.0036750000435858965
1722584698118641200,6.75564111328125,-0.4415600001811981,-1.2667330503463745,0.35131001472473145
1722584698128615000,6.765614990234375,-0.4415600001811981,-1.2667330503463745,0.35131001472473145
1722584698138600200,6.77560009765625,1.708055019378662,-1.0883170366287231,-0.6470040082931519
1722584698148585200,6.785585205078125,1.708055019378662,-1.0883170366287231,-0.6470040082931519
1722584698158573000,6.795572998046875,-2.553373098373413,0.8816279768943787,0.20722800493240356
1722584698168560600,6.805560546875,-2.553373098373413,0.8816279768943787,0.20722800493240356
1722584698178545700,6.815545654296875,-0.25285500288009644,-0.22600199282169342,-0.3864060044288635
1722584698188530400,6.825530517578125,-0.25285500288009644,-0.22600199282169342,-0.3864060044288635
1722584698198514700,6.8355146484375,2.0348169803619385,0.6274009943008423,0.1619659960269928
1722584698208499000,6.8454990234375,2.0348169803619385,0.6274009943008423,0.1619659960269928
1722584698218481000,6.85548095703125,-1.4134249687194824,0.5552459955215454,0.03768099844455719
1722584698228463000,6.865463134765625,-1.4134249687194824,0.5552459955215454,0.03768099844455719
1722584698238445300,6.8754453125,0.018306000158190727,-1.1800190210342407,-1.4451940059661865
1722584698248427500,6.885427490234375,0.018306000158190727,-1.1800190210342407,-1.4451940059661865
1722584698258412000,6.895412109375,0.9673539996147156,0.1513649970293045,-0.1797419935464859
1722584698268396500,6.905396484375,0.9673539996147156,0.1513649970293045,-0.1797419935464859
1722584698278363400,6.91536328125,-0.4254649877548218,0.06094999983906746,0.701740026473999
1722584698288330200,6.925330322265625,-0.4254649877548218,0.06094999983906746,0.701740026473999
1722584698298318300,6.935318359375,1.644718050956726,1.8905730247497559,0.0439860001206398
1722584698308306700,6.945306640625,1.644718050956726,1.8905730247497559,0.0439860001206398
1722584698318292000,6.9552919921875,-0.6477370262145996,0.0032550001051276922,-0.42442598938941956
1722584698328277500,6.965277587890625,-0.6477370262145996,0.0032550001051276922,-0.42442598938941956
1722584698338263800,6.975263916015625,1.3404979705810547,-0.36003100872039795,-0.012240000069141388
1722584698348250000,6.98525,1.3404979705810547,-0.36003100872039795,-0.012240000069141388
1722584698358226700,6.995226806640625,-1.0756609439849854,1.5390310287475586,0.08260499686002731
1722584698368203300,7.005203369140625,-1.0756609439849854,1.5390310287475586,0.08260499686002731
1722584698378180400,7.015180419921875,-0.3951460123062134,1.3163570165634155,0.23844300210475922
1722584698388157700,7.02515771484375,-0.3951460123062134,1.3163570165634155,0.23844300210475922
1722584698398145500,7.0351455078125,0.9110640287399292,0.61285799741745,0.09137299656867981
1722584698408133400,7.04513330078125,0.9110640287399292,0.61285799741745,0.09137299656867981
1722584698418120000,7.055119873046875,-1.725327968597412,-1.7499619722366333,-0.5294690132141113
1722584698428106800,7.065106689453125,-1.725327968597412,-1.7499619722366333,-0.5294690132141113
1722584698438082800,7.075082763671875,-0.41398900747299194,-0.5167030096054077,-0.8203579783439636
1722584698448059000,7.085058837890625,-0.41398900747299194,-0.5167030096054077,-0.8203579783439636
1722584698458047200,7.095047119140625,-0.275875985622406,0.9620169997215271,-0.025206999853253365
1722584698468035600,7.10503564453125,-0.275875985622406,0.9620169997215271,-0.025206999853253365
1722584698478008600,7.115008544921875,0.31752899289131165,-1.2617770433425903,-0.38641300797462463
1722584698487981800,7.12498193359375,0.31752899289131165,-1.2617770433425903,-0.38641300797462463
1722584698497969000,7.134968994140625,-1.072775959968567,-1.0405089855194092,-0.35454699397087097
1722584698507956000,7.1449560546875,-1.072775959968567,-1.0405089855194092,-0.35454699397087097
1722584698517942000,7.15494189453125,-2.2694180011749268,0.04097500070929527,-0.30830198526382446
1722584698527927800,7.164927734375,-2.2694180011749268,0.04097500070929527,-0.30830198526382446
1722584698537916700,7.174916748046875,0.07405699789524078,0.09597499668598175,0.1973789930343628
1722584698547905500,7.184905517578125,0.07405699789524078,0.09597499668598175,0.1973789930343628
1722584698557894400,7.194894287109375,-0.9603769779205322,1.0913079977035522,0.9918810129165649
1722584698567883300,7.20488330078125,-0.9603769779205322,1.0913079977035522,0.9918810129165649
1722584698577856500,7.2148564453125,-0.3252730071544647,1.212211012840271,-0.573183000087738
1722584698587830000,7.224830078125,-0.3252730071544647,1.212211012840271,-0.573183000087738
1722584698597808600,7.23480859375,0.08910399675369263,1.5679839849472046,0.06772299855947495
1722584698607787000,7.244787109375,0.08910399675369263,1.5679839849472046,0.06772299855947495
1722584698617773600,7.254773681640625,-0.3415519893169403,1.2860080003738403,1.2072869539260864
1722584698627759900,7.264759765625,-0.3415519893169403,1.2860080003738403,1.2072869539260864
1722584698637744600,7.27474462890625,0.4857589900493622,1.782670021057129,0.08506499975919724
1722584698647729400,7.2847294921875,0.4857589900493622,1.782670021057129,0.08506499975919724
1722584698657721600,7.2947216796875,-0.35740500688552856,-0.2190220057964325,-0.8848159909248352
1722584698667713500,7.304713623046875,-0.35740500688552856,-0.2190220057964325,-0.8848159909248352
1722584698677688000,7.31468798828125,0.10313700139522552,-0.6421409845352173,-0.4286400079727173
1722584698687662800,7.324662841796875,0.10313700139522552,-0.6421409845352173,-0.4286400079727173
1722584698697649400,7.3346494140625,0.520687997341156,-1.510491967201233,-0.4250580072402954
1722584698707636200,7.34463623046875,0.520687997341156,-1.510491967201233,-0.4250580072402954
1722584698717610000,7.35460986328125,-0.16604900360107422,-2.114090919494629,-1.213394045829773
1722584698727583700,7.364583740234375,-0.16604900360107422,-2.114090919494629,-1.213394045829773
1722584698737561600,7.3745615234375,0.1868239939212799,-0.3058120012283325,-0.07010900229215622
1722584698747539200,7.384539306640625,0.1868239939212799,-0.3058120012283325,-0.07010900229215622
1722584698757517000,7.39451708984375,0.6764529943466187,-0.8251320123672485,0.16615299880504608
1722584698767495000,7.404494873046875,0.6764529943466187,-0.8251320123672485,0.16615299880504608
1722584698777486800,7.41448681640625,0.7578690052032471,0.6168519854545593,0.9012560248374939
1722584698787478500,7.424478515625,0.7578690052032471,0.6168519854545593,0.9012560248374939
1722584698797467100,7.434467041015625,0.23028799891471863,1.5825350284576416,1.47366201877594
1722584698807455700,7.444455810546875,0.23028799891471863,1.5825350284576416,1.47366201877594
1722584698817430800,7.4544306640625,-0.687063992023468,0.49959999322891235,0.44247400760650635
1722584698827405800,7.46440576171875,-0.687063992023468,0.49959999322891235,0.44247400760650635
1722584698837383700,7.4743837890625,-0.13937200605869293,0.044808000326156616,0.38177600502967834
1722584698847361800,7.48436181640625,-0.13937200605869293,0.044808000326156616,0.38177600502967834
1722584698857326600,7.49432666015625,0.01296599954366684,-1.5313429832458496,-0.09804300218820572
1722584698867291600,7.504291748046875,0.01296599954366684,-1.5313429832458496,-0.09804300218820572
1722584698877253400,7.51425341796875,-0.6133260130882263,-1.3645260334014893,-0.5649849772453308
1722584698887214800,7.52421484375,-0.6133260130882263,-1.3645260334014893,-0.5649849772453308
1722584698897204500,7.53420458984375,-0.5185070037841797,0.19868400692939758,0.32200199365615845
1722584698907193900,7.54419384765625,-0.5185070037841797,0.19868400692939758,0.32200199365615845
1722584698917170700,7.554170654296875,1.0727030038833618,2.941351890563965,1.601585030555725
1722584698927147300,7.564147216796875,1.0727030038833618,2.941351890563965,1.601585030555725
1722584698937134800,7.574134765625,-0.47230300307273865,2.0620028972625732,0.5450670123100281
1722584698947122700,7.584122802734375,-0.47230300307273865,2.0620028972625732,0.5450670123100281
1722584698957087200,7.594087158203125,-1.6883870363235474,-1.4801870584487915,-0.9544919729232788
1722584698967051800,7.6040517578125,-1.6883870363235474,-1.4801870584487915,-0.9544919729232788
1722584698977032400,7.614032470703125,0.706404983997345,-2.7488820552825928,-0.9744499921798706
1722584698987013400,7.624013427734375,0.706404983997345,-2.7488820552825928,-0.9744499921798706
1722584698996989700,7.63398974609375,0.5739629864692688,0.6161850094795227,0.9579089879989624
1722584699006966000,7.643966064453125,0.5739629864692688,0.6161850094795227,0.9579089879989624
1722584699016932000,7.65393212890625,0.8294190168380737,3.9032340049743652,1.2137130498886108
1722584699026898200,7.663898193359375,0.8294190168380737,3.9032340049743652,1.2137130498886108
1722584699036876000,7.6738759765625,2.011514902114868,-0.017740000039339066,-0.8456310033798218
1722584699046854000,7.68385400390625,2.011514902114868,-0.017740000039339066,-0.8456310033798218
1722584699056821000,7.693821044921875,2.2503180503845215,-4.044778823852539,-0.799685001373291
1722584699066788400,7.703788330078125,2.2503180503845215,-4.044778823852539,-0.799685001373291
1722584699076778800,7.71377880859375,-1.1110869646072388,1.7477140426635742,0.4013560116291046
1722584699086769400,7.723769287109375,-1.1110869646072388,1.7477140426635742,0.4013560116291046
1722584699096755500,7.73375537109375,-3.3311350345611572,-0.05340699851512909,-1.3871469497680664
1722584699106741800,7.74374169921875,-3.3311350345611572,-0.05340699851512909,-1.3871469497680664
1722584699116729600,7.7537294921875,0.7453910112380981,-3.1019959449768066,-1.5659680366516113
1722584699126717200,7.76371728515625,0.7453910112380981,-3.1019959449768066,-1.5659680366516113
1722584699136703200,7.773703125,-0.0065830000676214695,0.12602299451828003,0.25870901346206665
1722584699146689000,7.78368896484375,-0.0065830000676214695,0.12602299451828003,0.25870901346206665
1722584699156680400,7.793680419921875,-2.0156641006469727,3.7195770740509033,0.6245189905166626
1722584699166672100,7.803672119140625,-2.0156641006469727,3.7195770740509033,0.6245189905166626
1722584699176660000,7.813659912109375,-0.8444690108299255,-1.450184941291809,-1.345342993736267
1722584699186647800,7.823647705078125,-0.8444690108299255,-1.450184941291809,-1.345342993736267
1722584699196625700,7.833625732421875,0.0571650005877018,-1.900149941444397,0.1963369995355606
1722584699206603800,7.843603759765625,0.0571650005877018,-1.900149941444397,0.1963369995355606
1722584699216591000,7.853591064453125,0.11724700033664703,4.03907585144043,1.696310043334961
1722584699226578400,7.863578369140625,0.11724700033664703,4.03907585144043,1.696310043334961
1722584699236561700,7.873561767578125,-3.395689010620117,-2.8251490592956543,-0.8363649845123291
1722584699246544600,7.883544677734375,-3.395689010620117,-2.8251490592956543,-0.8363649845123291
1722584699256528100,7.893528076171875,0.1083730012178421,-0.9188479781150818,0.8477510213851929
1722584699266511600,7.90351171875,0.1083730012178421,-0.9188479781150818,0.8477510213851929
1722584699276494600,7.91349462890625,-0.02501000091433525,2.56510591506958,1.5187599658966064
1722584699286477600,7.9234775390625,-0.02501000091433525,2.56510591506958,1.5187599658966064
1722584699296461800,7.9334619140625,-0.598537027835846,-4.363048076629639,-0.8772519826889038
1722584699306446000,7.943446044921875,-0.598537027835846,-4.363048076629639,-0.8772519826889038
1722584699316425700,7.95342578125,-0.6816030144691467,3.4467930793762207,1.379518985748291
1722584699326405400,7.9634052734375,-0.6816030144691467,3.4467930793762207,1.379518985748291
1722584699336380700,7.973380615234375,-0.9065549969673157,-0.2724680006504059,-0.08837699890136719
1722584699346355700,7.983355712890625,-0.9065549969673157,-0.2724680006504059,-0.08837699890136719
1722584699356342500,7.993342529296875,2.394460916519165,-0.6682929992675781,0.45966199040412903
1722584699366329000,8.0033291015625,2.394460916519165,-0.6682929992675781,0.45966199040412903
1722584699376316400,8.01331640625,0.20798900723457336,3.334181070327759,0.6948649883270264
1722584699386303700,8.0233037109375,0.20798900723457336,3.334181070327759,0.6948649883270264
1722584699396277800,8.03327783203125,2.3550539016723633,-2.5266048908233643,-1.2745009660720825
1722584699406251800,8.043251708984375,2.3550539016723633,-2.5266048908233643,-1.2745009660720825
1722584699416239400,8.0532392578125,1.4573060274124146,4.712174892425537,1.3311560153961182
1722584699426226700,8.063226806640625,1.4573060274124146,4.712174892425537,1.3311560153961182
1722584699436214800,8.07321484375,-1.8007179498672485,-2.0221190452575684,-0.8661069869995117
1722584699446203000,8.083202880859375,-1.8007179498672485,-2.0221190452575684,-0.8661069869995117
1722584699456194800,8.09319482421875,-1.0723379850387573,0.5888879895210266,0.00008099999831756577
1722584699466186800,8.103186767578125,-1.0723379850387573,0.5888879895210266,0.00008099999831756577
1722584699476173000,8.113173095703125,0.15724000334739685,-0.17632600665092468,-1.6968259811401367
1722584699486159400,8.123159423828126,0.15724000334739685,-0.17632600665092468,-1.6968259811401367
1722584699496146400,8.133146484375,2.005286931991577,-0.9456210136413574,-0.6836230158805847
1722584699506133200,8.14313330078125,2.005286931991577,-0.9456210136413574,-0.6836230158805847
1722584699516115200,8.153115234375,-0.3514060080051422,1.559548020362854,0.2273769974708557
1722584699526097200,8.16309716796875,-0.3514060080051422,1.559548020362854,0.2273769974708557
1722584699536081400,8.173081298828125,0.7514389753341675,-1.888558030128479,-1.153568983078003
1722584699546065400,8.1830654296875,0.7514389753341675,-1.888558030128479,-1.153568983078003
1722584699556045600,8.193045654296874,0.9518759846687317,2.9852640628814697,0.18802399933338165
1722584699566025700,8.203025634765625,0.9518759846687317,2.9852640628814697,0.18802399933338165
1722584699576015000,8.21301513671875,1.4834970235824585,-2.7773289680480957,-0.7473689913749695
1722584699586004200,8.223004150390626,1.4834970235824585,-2.7773289680480957,-0.7473689913749695
1722584699595982600,8.232982666015625,-0.038996998220682144,2.6739509105682373,1.261335015296936
1722584699605961000,8.2429609375,-0.038996998220682144,2.6739509105682373,1.261335015296936
1722584699615934700,8.252934814453125,-0.8903120160102844,-1.7627559900283813,-1.1327110528945923
1722584699625908500,8.262908447265625,-0.8903120160102844,-1.7627559900283813,-1.1327110528945923
1722584699635889700,8.2728896484375,-0.0038320000749081373,1.9496489763259888,0.4703480005264282
1722584699645870600,8.28287060546875,-0.0038320000749081373,1.9496489763259888,0.4703480005264282
1722584699655861500,8.292861572265625,-1.2011100053787231,-2.5268280506134033,0.16615299880504608
1722584699665852200,8.30285205078125,-1.2011100053787231,-2.5268280506134033,0.16615299880504608
1722584699675829200,8.312829345703125,-1.9164530038833618,3.264314889907837,1.3051259517669678
1722584699685806000,8.32280615234375,-1.9164530038833618,3.264314889907837,1.3051259517669678
1722584699695794000,8.3327939453125,-1.5613449811935425,-3.7752740383148193,-1.6094759702682495
1722584699705781800,8.34278173828125,-1.5613449811935425,-3.7752740383148193,-1.6094759702682495
1722584699715772400,8.3527724609375,-2.8763999938964844,2.9725420475006104,1.798079013824463
1722584699725762800,8.3627626953125,-2.8763999938964844,2.9725420475006104,1.798079013824463
1722584699735749600,8.37274951171875,-2.9155519008636475,-0.1894650012254715,-0.1846649944782257
1722584699745736400,8.382736328125,-2.9155519008636475,-0.1894650012254715,-0.1846649944782257
1722584699755712000,8.3927119140625,0.4183860123157501,-1.999696969985962,-0.8431400060653687
1722584699765687600,8.4026875,0.4183860123157501,-1.999696969985962,-0.8431400060653687
1722584699775677400,8.412677490234374,1.5192949771881104,3.5545549392700195,1.2325329780578613
1722584699785667300,8.422667236328126,1.5192949771881104,3.5545549392700195,1.2325329780578613
1722584699795657700,8.43265771484375,-2.0324668884277344,-0.4447909891605377,-0.19460099935531616
1722584699805648400,8.4426484375,-2.0324668884277344,-0.4447909891605377,-0.19460099935531616
1722584699815615200,8.452615234375,0.6609500050544739,-1.1317280530929565,-0.35631999373435974
1722584699825582000,8.46258203125,0.6609500050544739,-1.1317280530929565,-0.35631999373435974
1722584699835544300,8.47254443359375,1.1161409616470337,2.837851047515869,1.0974119901657104
1722584699845506600,8.482506591796875,1.1161409616470337,2.837851047515869,1.0974119901657104
1722584699855483400,8.4924833984375,-1.1364279985427856,1.0955950021743774,0.15456199645996094
1722584699865460200,8.502460205078124,-1.1364279985427856,1.0955950021743774,0.15456199645996094
1722584699875447300,8.512447265625,-0.6403489708900452,-1.2662999629974365,-0.7337210178375244
1722584699885434000,8.52243408203125,-0.6403489708900452,-1.2662999629974365,-0.7337210178375244
1722584699895410000,8.532409912109374,0.8102380037307739,-0.11524000018835068,-0.03566199913620949
1722584699905385500,8.542385498046874,0.8102380037307739,-0.11524000018835068,-0.03566199913620949
1722584699915350500,8.5523505859375,0.9939470291137695,1.670456051826477,0.8170560002326965
1722584699925315600,8.562315673828126,0.9939470291137695,1.670456051826477,0.8170560002326965
1722584699935299000,8.572299072265626,0.15014299750328064,1.817857027053833,0.7842450141906738
1722584699945282600,8.582282470703126,0.15014299750328064,1.817857027053833,0.7842450141906738
1722584699955249200,8.592249267578126,-1.1458280086517334,0.31037598848342896,0.49768200516700745
1722584699965215500,8.602215576171876,-1.1458280086517334,0.31037598848342896,0.49768200516700745
1722584699975195100,8.612195068359375,-0.24148699641227722,-0.8125010132789612,-0.21556900441646576
1722584699985174800,8.6221748046875,-0.24148699641227722,-0.8125010132789612,-0.21556900441646576
1722584699995152100,8.632152099609375,0.2371390014886856,-1.9249780178070068,-0.486642986536026
1722584700005129500,8.64212939453125,0.2371390014886856,-1.9249780178070068,-0.486642986536026
1722584700015119000,8.652119140625,-0.39912500977516174,-1.918463945388794,-0.7380310297012329
1722584700025108700,8.662108642578126,-0.39912500977516174,-1.918463945388794,-0.7380310297012329
1722584700035072300,8.672072265625,-0.7258870005607605,-0.3436950147151947,-0.5034580230712891
1722584700045035800,8.682035888671875,-0.7258870005607605,-0.3436950147151947,-0.5034580230712891
1722584700055025700,8.692025634765624,-0.03708599880337715,-0.7953649759292603,-0.9292380213737488
1722584700065015300,8.702015380859375,-0.03708599880337715,-0.7953649759292603,-0.9292380213737488
1722584700074994000,8.711993896484374,-0.07159999758005142,-0.543819010257721,-0.3283100128173828
1722584700084972500,8.72197265625,-0.07159999758005142,-0.543819010257721,-0.3283100128173828
1722584700094947800,8.73194775390625,-0.9622470140457153,-0.049348000437021255,-0.2591089904308319
1722584700104923400,8.74192333984375,-0.9622470140457153,-0.049348000437021255,-0.2591089904308319
1722584700114902000,8.751902099609374,1.204969048500061,-1.1394879817962646,-0.03290800005197525
1722584700124880600,8.761880615234375,1.204969048500061,-1.1394879817962646,-0.03290800005197525
1722584700134859300,8.771859375,0.7040489912033081,0.6030809879302979,0.4572080075740814
1722584700144838100,8.781838134765625,0.7040489912033081,0.6030809879302979,0.4572080075740814
1722584700154823700,8.79182373046875,-0.09660299867391586,0.22151699662208557,0.032044000923633575
1722584700164809200,8.801809326171876,-0.09660299867391586,0.22151699662208557,0.032044000923633575
1722584700174797300,8.81179736328125,2.1382529735565186,0.7214149832725525,0.27501600980758667
1722584700184785700,8.82178564453125,2.1382529735565186,0.7214149832725525,0.27501600980758667
1722584700194750700,8.831750732421876,-0.8849520087242126,0.2691810131072998,0.7134969830513
1722584700204715800,8.8417158203125,-0.8849520087242126,0.2691810131072998,0.7134969830513
1722584700214706400,8.85170654296875,-0.293971985578537,-0.021462000906467438,0.3100709915161133
1722584700224696800,8.86169677734375,-0.293971985578537,-0.021462000906467438,0.3100709915161133
1722584700234663400,8.871663330078125,1.0111550092697144,0.22963500022888184,0.394430011510849
1722584700244630000,8.881630126953125,1.0111550092697144,0.22963500022888184,0.394430011510849
1722584700254597400,8.891597412109375,-0.7335630059242249,0.5536890029907227,0.5694620013237
1722584700264565000,8.90156494140625,-0.7335630059242249,0.5536890029907227,0.5694620013237
1722584700274543000,8.911543212890624,0.05038199946284294,0.4908199906349182,0.14612099528312683
1722584700284521200,8.921521240234375,0.05038199946284294,0.4908199906349182,0.14612099528312683
1722584700294500000,8.9315,0.5303260087966919,0.8638489842414856,0.3915950059890747
1722584700304478700,8.941478759765625,0.5303260087966919,0.8638489842414856,0.3915950059890747
1722584700314462000,8.9514619140625,-0.2993989884853363,-0.7180359959602356,-0.035565998405218124
1722584700324445400,8.961445556640625,-0.2993989884853363,-0.7180359959602356,-0.035565998405218124
1722584700334408400,8.971408447265626,-1.519534945487976,-0.3417859971523285,-0.3834249973297119
1722584700344371200,8.98137109375,-1.519534945487976,-0.3417859971523285,-0.3834249973297119
1722584700354339800,8.99133984375,-0.30433300137519836,-0.36740100383758545,-0.48976799845695496
1722584700364308500,9.00130859375,-0.30433300137519836,-0.36740100383758545,-0.48976799845695496
1722584700374289400,9.011289306640625,-0.10765700042247772,-0.23741300404071808,-0.5704560279846191
1722584700384270600,9.0212705078125,-0.10765700042247772,-0.23741300404071808,-0.5704560279846191
1722584700394236000,9.03123583984375,-2.509654998779297,-0.40936198830604553,-0.7670860290527344
1722584700404201200,9.041201171875,-2.509654998779297,-0.40936198830604553,-0.7670860290527344
1722584700414166500,9.05116650390625,0.43536099791526794,-0.8320540189743042,-0.3974060118198395
1722584700424131800,9.0611318359375,0.43536099791526794,-0.8320540189743042,-0.3974060118198395
1722584700434118100,9.0711181640625,2.1123569011688232,0.17024199664592743,0.20632199943065643
1722584700444104200,9.081104248046875,2.1123569011688232,0.17024199664592743,0.20632199943065643
1722584700454068700,9.09106884765625,0.31885799765586853,-1.2505730390548706,-0.2873440086841583
1722584700464033300,9.101033203125,0.31885799765586853,-1.2505730390548706,-0.2873440086841583
1722584700473994800,9.110994873046875,-0.7267569899559021,-0.7605209946632385,0.1487549990415573
1722584700483956200,9.120956298828125,-0.7267569899559021,-0.7605209946632385,0.1487549990415573
1722584700493921500,9.130921630859374,0.4057599902153015,-0.5065619945526123,-0.21399499475955963
1722584700503887000,9.14088720703125,0.4057599902153015,-0.5065619945526123,-0.21399499475955963
1722584700513852700,9.150852783203124,2.1845200061798096,-0.3564789891242981,0.48464301228523254
1722584700523818200,9.160818359375,2.1845200061798096,-0.3564789891242981,0.48464301228523254
1722584700533784000,9.1707841796875,-2.15897798538208,0.1015240028500557,0.009163999930024147
1722584700543749600,9.18074951171875,-2.15897798538208,0.1015240028500557,0.009163999930024147
1722584700553715200,9.190715087890625,0.3569900095462799,-0.56563401222229,-0.5440719723701477
1722584700563680800,9.2006806640625,0.3569900095462799,-0.56563401222229,-0.5440719723701477
1722584700573648400,9.2106484375,3.123425006866455,1.970337986946106,0.6876009702682495
1722584700583616300,9.2206162109375,3.123425006866455,1.970337986946106,0.6876009702682495
1722584700593583900,9.230583984375,-2.2527570724487305,-1.3732149600982666,-0.32829898595809937
1722584700603551700,9.2405517578125,-2.2527570724487305,-1.3732149600982666,-0.32829898595809937
1722584700613518800,9.250518798828125,1.4920469522476196,0.35835000872612,-0.6445549726486206
1722584700623486000,9.26048583984375,1.4920469522476196,0.35835000872612,-0.6445549726486206
1722584700633456000,9.2704560546875,-0.5716210007667542,-0.4069789946079254,0.5305110216140747
1722584700643426300,9.28042626953125,-0.5716210007667542,-0.4069789946079254,0.5305110216140747
1722584700653402600,9.290402587890625,1.0531760454177856,-0.8714669942855835,-0.15616099536418915
1722584700663379200,9.300379150390626,1.0531760454177856,-0.8714669942855835,-0.15616099536418915
1722584700673346800,9.310346923828124,-0.15387800335884094,0.25065499544143677,0.16210199892520905
1722584700683314700,9.320314697265625,-0.15387800335884094,0.25065499544143677,0.16210199892520905
1722584700693282800,9.33028271484375,0.19826099276542664,-0.047283999621868134,0.0023429999127984047
1722584700703250700,9.340250732421875,0.19826099276542664,-0.047283999621868134,0.0023429999127984047
1722584700713241300,9.350241455078125,1.6564650535583496,2.166901111602783,1.0019949674606323
1722584700723231700,9.360231689453125,1.6564650535583496,2.166901111602783,1.0019949674606323
1722584700733199400,9.370199462890625,-1.5277819633483887,-1.0267599821090698,0.5779809951782227
1722584700743167200,9.380167236328125,-1.5277819633483887,-1.0267599821090698,0.5779809951782227
1722584700753144300,9.390144287109376,1.5102579593658447,0.6361849904060364,-0.0729919970035553
1722584700763121400,9.400121337890624,1.5102579593658447,0.6361849904060364,-0.0729919970035553
1722584700773107700,9.410107666015625,-0.8612520098686218,1.040310025215149,0.9670169949531555
1722584700783094000,9.420093994140625,-0.8612520098686218,1.040310025215149,0.9670169949531555
1722584700793078300,9.430078369140626,0.9444599747657776,-1.4754290580749512,-0.8793910145759583
1722584700803062800,9.440062744140626,0.9444599747657776,-1.4754290580749512,-0.8793910145759583
1722584700813047300,9.45004736328125,-0.397381991147995,-0.9945530295372009,-0.6675620079040527
1722584700823031800,9.46003173828125,-0.397381991147995,-0.9945530295372009,-0.6675620079040527
1722584700833015600,9.470015625,-3.250274896621704,0.7104060053825378,-0.34358400106430054
1722584700842999000,9.4799990234375,-3.250274896621704,0.7104060053825378,-0.34358400106430054
1722584700852982000,9.48998193359375,0.882161021232605,1.536756992340088,-0.3104870021343231
1722584700862965200,9.49996533203125,0.882161021232605,1.536756992340088,-0.3104870021343231
1722584700872951000,9.509950927734375,3.181999921798706,0.2696489989757538,0.41853201389312744
1722584700882937000,9.51993701171875,3.181999921798706,0.2696489989757538,0.41853201389312744
1722584700892918800,9.529918701171875,-0.182328000664711,0.18705399334430695,-0.7180730104446411
1722584700902900700,9.539900634765624,-0.182328000664711,0.18705399334430695,-0.7180730104446411
1722584700912884200,9.54988427734375,-1.6715259552001953,0.5760040283203125,-0.36397698521614075
1722584700922867700,9.55986767578125,-1.6715259552001953,0.5760040283203125,-0.36397698521614075
1722584700932848000,9.56984814453125,2.034809112548828,-1.244860053062439,-0.014255999587476254
1722584700942828500,9.57982861328125,2.034809112548828,-1.244860053062439,-0.014255999587476254
1722584700952810200,9.589810302734374,-0.5061529874801636,-1.227429986000061,0.2556140124797821
1722584700962792200,9.599792236328126,-0.5061529874801636,-1.227429986000061,0.2556140124797821
1722584700972758500,9.609758544921876,-1.2671420574188232,-0.09739699959754944,-0.6800739765167236
1722584700982725000,9.61972509765625,-1.2671420574188232,-0.09739699959754944,-0.6800739765167236
1722584700992695000,9.629695068359375,1.4329609870910645,1.0926480293273926,0.5068680047988892
1722584701002665000,9.6396650390625,1.4329609870910645,1.0926480293273926,0.5068680047988892
1722584701012642300,9.649642333984374,2.972372055053711,1.664417028427124,0.979328989982605
1722584701022619600,9.65961962890625,2.972372055053711,1.664417028427124,0.979328989982605
1722584701032598500,9.6695986328125,-2.4543819427490234,0.6530290246009827,-0.10239599645137787
1722584701042577700,9.67957763671875,-2.4543819427490234,0.6530290246009827,-0.10239599645137787
1722584701052554500,9.689554443359375,-0.33666500449180603,0.49411898851394653,0.338234007358551
1722584701062531000,9.699531005859376,-0.33666500449180603,0.49411898851394653,0.338234007358551
1722584701072514600,9.7095146484375,0.7702450156211853,0.25535398721694946,0.84443199634552
1722584701082498000,9.719498046875,0.7702450156211853,0.25535398721694946,0.84443199634552
1722584701092472800,9.729472900390626,-0.60418701171875,0.16109299659729004,0.24235199391841888
1722584701102447600,9.739447509765625,-0.60418701171875,0.16109299659729004,0.24235199391841888
1722584701112425000,9.749425048828124,-1.7597600221633911,-0.7923240065574646,-0.5870190262794495
1722584701122402000,9.759402099609375,-1.7597600221633911,-0.7923240065574646,-0.5870190262794495
1722584701132370700,9.76937060546875,0.5131949782371521,0.5011919736862183,-0.061854999512434006
1722584701142339600,9.779339599609376,0.5131949782371521,0.5011919736862183,-0.061854999512434006
1722584701152318200,9.789318115234375,1.2863789796829224,1.011718988418579,0.30826500058174133
1722584701162296800,9.799296875,1.2863789796829224,1.011718988418579,0.30826500058174133
1722584701172264700,9.8092646484375,0.1534530073404312,-0.18013499677181244,-0.4790860116481781
1722584701182232300,9.819232421875,0.1534530073404312,-0.18013499677181244,-0.4790860116481781
1722584701192198000,9.829197998046874,0.40103501081466675,0.04271500185132027,-0.5483499765396118
1722584701202163200,9.8391630859375,0.40103501081466675,0.04271500185132027,-0.5483499765396118
1722584701212148200,9.849148193359374,0.00016900000628083944,0.045426998287439346,-0.4574950039386749
1722584701222133200,9.85913330078125,0.00016900000628083944,0.045426998287439346,-0.4574950039386749
1722584701232119000,9.869119140625,-1.578691005706787,0.364531010389328,-0.17379599809646606
1722584701242104600,9.8791044921875,-1.578691005706787,0.364531010389328,-0.17379599809646606
1722584701252089300,9.88908935546875,-1.348101019859314,-0.03144900128245354,-0.9137269854545593
1722584701262074000,9.89907421875,-1.348101019859314,-0.03144900128245354,-0.9137269854545593
1722584701272053000,9.909052978515625,-0.21939599514007568,-0.04805900156497955,-1.0034090280532837
1722584701282032000,9.9190322265625,-0.21939599514007568,-0.04805900156497955,-1.0034090280532837
1722584701292011500,9.929011474609375,-0.004503000061959028,0.6283040046691895,-0.135903999209404
1722584701301990700,9.93899072265625,-0.004503000061959028,0.6283040046691895,-0.135903999209404
1722584701311969500,9.948969482421875,-0.88127201795578,-0.8209969997406006,0.009101999923586845
1722584701321948400,9.958948486328126,-0.88127201795578,-0.8209969997406006,0.009101999923586845
1722584701331928300,9.96892822265625,0.06838099658489227,-0.3238230049610138,0.05807900056242943
1722584701341908200,9.978908203125,0.06838099658489227,-0.3238230049610138,0.05807900056242943
1722584701351900000,9.98889990234375,0.577269971370697,-0.039788998663425446,0.9407860040664673
1722584701361891600,9.9988916015625,0.577269971370697,-0.039788998663425446,0.9407860040664673
1722584701371874300,10.008874267578125,-0.7333710193634033,-0.1364710032939911,0.8698899745941162
1722584701381856800,10.018856689453125,-0.7333710193634033,-0.1364710032939911,0.8698899745941162
1722584701391848400,10.028848388671875,-0.8655030131340027,-0.1440189927816391,0.5957599878311157
1722584701401840000,10.038840087890625,-0.8655030131340027,-0.1440189927816391,0.5957599878311157
1722584701411832000,10.04883203125,-0.05835900083184242,0.4773139953613281,0.5957379937171936
1722584701421824000,10.058823974609375,-0.05835900083184242,0.4773139953613281,0.5957379937171936
1722584701431806000,10.068805908203124,-0.5122510194778442,-0.5512930154800415,0.3103339970111847
1722584701441788000,10.078787841796874,-0.5122510194778442,-0.5512930154800415,0.3103339970111847
1722584701451773700,10.088773681640625,-0.42136600613594055,0.711555004119873,0.26654401421546936
1722584701461759500,10.098759521484375,-0.42136600613594055,0.711555004119873,0.26654401421546936
1722584701471752200,10.108752197265625,0.7742310166358948,0.1406790018081665,-0.03446400165557861
1722584701481745000,10.118744873046875,0.7742310166358948,0.1406790018081665,-0.03446400165557861
1722584701491744800,10.128744873046875,0.16170799732208252,0.7594239711761475,0.17011600732803345
1722584701501692400,10.1386923828125,-0.20408399403095245,0.2794930040836334,-0.25469401478767395
1722584701511639800,10.148639892578124,-0.20408399403095245,0.2794930040836334,-0.25469401478767395
1722584701521618200,10.1586181640625,-0.407025009393692,0.34405601024627686,-0.2078939974308014
1722584701531596500,10.168596435546876,-0.407025009393692,0.34405601024627686,-0.2078939974308014
1722584701541571300,10.1785712890625,-0.07249300181865692,-0.2276410013437271,-0.34862300753593445
1722584701551545900,10.1885458984375,-0.07249300181865692,-0.2276410013437271,-0.34862300753593445
1722584701561530400,10.1985302734375,-0.28665798902511597,0.23772099614143372,-0.48149698972702026
1722584701571514600,10.2085146484375,-0.28665798902511597,0.23772099614143372,-0.48149698972702026
1722584701581481500,10.2184814453125,-0.0399710014462471,0.22728000581264496,-0.35633400082588196
1722584701591448000,10.228447998046875,-0.0399710014462471,0.22728000581264496,-0.35633400082588196
1722584701601427000,10.238427001953125,1.6243449449539185,1.0740530490875244,0.1606380045413971
1722584701611405600,10.248405517578124,1.6243449449539185,1.0740530490875244,0.1606380045413971
1722584701621383700,10.2583837890625,-0.01770400069653988,-0.41544800996780396,-0.1187409982085228
1722584701631361500,10.268361572265626,-0.01770400069653988,-0.41544800996780396,-0.1187409982085228
1722584701641351400,10.278351318359375,-1.3493269681930542,-0.10512399673461914,0.28869399428367615
1722584701651341000,10.288341064453125,-1.3493269681930542,-0.10512399673461914,0.28869399428367615
1722584701661328400,10.298328369140625,-0.9505869746208191,-0.503242015838623,0.07675900310277939
1722584701671316000,10.30831591796875,-0.9505869746208191,-0.503242015838623,0.07675900310277939
1722584701681295600,10.318295654296875,1.0900980234146118,-0.5021129846572876,0.08550799638032913
1722584701691275300,10.328275146484375,1.0900980234146118,-0.5021129846572876,0.08550799638032913
1722584701701243100,10.3382431640625,-0.49524301290512085,0.2916409969329834,0.30747899413108826
1722584701711210800,10.348210693359375,-0.49524301290512085,0.2916409969329834,0.30747899413108826
1722584701721201700,10.35820166015625,-2.180596113204956,-0.4354130029678345,-0.3349809944629669
1722584701731192600,10.368192626953125,-2.180596113204956,-0.4354130029678345,-0.3349809944629669
1722584701741158000,10.378157958984374,0.29156801104545593,-0.6287879943847656,-0.034589000046253204
1722584701751123200,10.388123291015624,0.29156801104545593,-0.6287879943847656,-0.034589000046253204
1722584701761099500,10.398099609375,1.1070610284805298,-0.41325101256370544,0.3357279896736145
1722584701771075800,10.408075927734375,1.1070610284805298,-0.41325101256370544,0.3357279896736145
1722584701781039900,10.418039794921874,0.015711000189185143,0.5328220129013062,0.18984000384807587
1722584701791004000,10.42800390625,0.015711000189185143,0.5328220129013062,0.18984000384807587
1722584701800979500,10.4379794921875,0.8035560250282288,0.4527739882469177,0.2494090050458908
1722584701810954800,10.447954833984374,0.8035560250282288,0.4527739882469177,0.2494090050458908
1722584701820930800,10.457930908203124,0.777292013168335,-0.23830899596214294,-0.07103700190782547
1722584701830906600,10.46790673828125,0.777292013168335,-0.23830899596214294,-0.07103700190782547
1722584701840882700,10.477882568359375,1.2557859420776367,0.9077979922294617,0.6855080127716064
1722584701850858500,10.4878583984375,1.2557859420776367,0.9077979922294617,0.6855080127716064
1722584701860849200,10.49784912109375,-2.0877110958099365,0.06667900085449219,0.341372013092041
1722584701870839800,10.50783984375,-2.0877110958099365,0.06667900085449219,0.341372013092041
1722584701880826400,10.517826416015625,0.9544159770011902,-0.1501840054988861,-0.21974100172519684
1722584701890813000,10.52781298828125,0.9544159770011902,-0.1501840054988861,-0.21974100172519684
1722584701900802600,10.537802490234375,1.4018850326538086,0.6501529812812805,0.9856280088424683
1722584701910792200,10.547792236328124,1.4018850326538086,0.6501529812812805,0.9856280088424683
1722584701920767200,10.557767333984375,-0.9508159756660461,0.6570389866828918,0.3812350034713745
1722584701930742300,10.5677421875,-0.9508159756660461,0.6570389866828918,0.3812350034713745
1722584701940716800,10.577716796875,-0.31773000955581665,0.09504199773073196,-0.3452639877796173
1722584701950691300,10.58769140625,-0.31773000955581665,0.09504199773073196,-0.3452639877796173
1722584701960676400,10.59767626953125,0.6426069736480713,-0.5440049767494202,-0.3756380081176758
1722584701970661400,10.607661376953125,0.6426069736480713,-0.5440049767494202,-0.3756380081176758
1722584701980640000,10.617639892578126,-0.6805499792098999,-0.3196280002593994,-0.4747940003871918
1722584701990618600,10.62761865234375,-0.6805499792098999,-0.3196280002593994,-0.4747940003871918
1722584702000597500,10.637597412109375,-1.292199969291687,0.46108898520469666,-0.710066020488739
1722584702010576400,10.647576416015625,-1.292199969291687,0.46108898520469666,-0.710066020488739
1722584702020553500,10.657553466796875,1.2396459579467773,0.04991000145673752,-0.36697399616241455
1722584702030530300,10.6675302734375,1.2396459579467773,0.04991000145673752,-0.36697399616241455
1722584702040505000,10.677505126953125,1.3324259519577026,-0.10746199637651443,-0.6142740249633789
1722584702050479900,10.68747998046875,1.3324259519577026,-0.10746199637651443,-0.6142740249633789
1722584702060466400,10.697466552734374,-2.0409929752349854,0.43310099840164185,-0.6962000131607056
1722584702070452700,10.70745263671875,-2.0409929752349854,0.43310099840164185,-0.6962000131607056
1722584702080446500,10.717446533203125,0.17313799262046814,0.1946060061454773,-0.22390000522136688
1722584702090440200,10.727440185546875,0.17313799262046814,0.1946060061454773,-0.22390000522136688
1722584702100425200,10.73742529296875,2.450413942337036,-0.3679330050945282,-0.23899100720882416
1722584702110410500,10.747410400390624,2.450413942337036,-0.3679330050945282,-0.23899100720882416
1722584702120385000,10.757385009765626,-0.7948690056800842,-0.2777459919452667,-0.2647339999675751
1722584702130359800,10.76735986328125,-0.7948690056800842,-0.2777459919452667,-0.2647339999675751
1722584702140347600,10.77734765625,-1.0458149909973145,0.045451998710632324,-0.05559299886226654
1722584702150335700,10.787335693359376,-1.0458149909973145,0.045451998710632324,-0.05559299886226654
1722584702160326000,10.797325927734375,0.9887300133705139,-0.26446598768234253,0.21224400401115417
1722584702170316000,10.80731591796875,0.9887300133705139,-0.26446598768234253,0.21224400401115417
1722584702180295700,10.817295654296874,-0.829945981502533,-0.015994999557733536,0.6957200169563293
1722584702190275300,10.827275390625,-0.829945981502533,-0.015994999557733536,0.6957200169563293
1722584702200249600,10.83724951171875,-1.6184489727020264,-1.342844009399414,0.38978201150894165
1722584702210224000,10.84722412109375,-1.6184489727020264,-1.342844009399414,0.38978201150894165
1722584702220195800,10.85719580078125,-0.42848899960517883,-0.4126720130443573,0.6541110277175903
1722584702230167300,10.867167236328125,-0.42848899960517883,-0.4126720130443573,0.6541110277175903
1722584702240145000,10.877144775390626,0.7867429852485657,0.03402499854564667,0.05810200050473213
1722584702250122200,10.887122314453125,0.7867429852485657,0.03402499854564667,0.05810200050473213
1722584702260113700,10.89711376953125,-0.37557700276374817,0.4171229898929596,0.24902699887752533
1722584702270105300,10.907105224609374,-0.37557700276374817,0.4171229898929596,0.24902699887752533
1722584702280088600,10.917088623046874,-0.6691259741783142,0.32514500617980957,0.8018620014190674
1722584702290072000,10.927072021484374,-0.6691259741783142,0.32514500617980957,0.8018620014190674
1722584702300049700,10.937049560546875,0.6860899925231934,0.0006309999735094607,0.2665899991989136
1722584702310027000,10.947027099609375,0.6860899925231934,0.0006309999735094607,0.2665899991989136
1722584702319993600,10.95699365234375,-0.39616599678993225,0.3834550082683563,0.6882479786872864
1722584702329960200,10.966960205078125,-0.39616599678993225,0.3834550082683563,0.6882479786872864
1722584702339938600,10.9769384765625,-2.329677104949951,-0.4917689859867096,-0.21730899810791016
1722584702349916700,10.986916748046875,-2.329677104949951,-0.4917689859867096,-0.21730899810791016
1722584702359881500,10.996881591796875,0.3730759918689728,0.4268780052661896,-0.6349610090255737
1722584702369846300,11.00684619140625,0.3730759918689728,0.4268780052661896,-0.6349610090255737
1722584702379837000,11.0168369140625,-0.13309000432491302,-0.22484800219535828,-0.1992100030183792
1722584702389827800,11.026827880859376,-0.13309000432491302,-0.22484800219535828,-0.1992100030183792
1722584702399817200,11.036817138671875,-0.2566240131855011,0.3751699924468994,-0.8290640115737915
1722584702409806800,11.046806884765624,-0.2566240131855011,0.3751699924468994,-0.8290640115737915
1722584702419782400,11.056782470703125,0.7348020076751709,1.289186954498291,-0.09190499782562256
1722584702429758200,11.06675830078125,0.7348020076751709,1.289186954498291,-0.09190499782562256
1722584702439748900,11.076748779296874,1.3132050037384033,0.9524350166320801,-0.2723189890384674
1722584702449739800,11.08673974609375,1.3132050037384033,0.9524350166320801,-0.2723189890384674
1722584702459728400,11.096728271484375,-0.23235799372196198,1.563359022140503,-0.4501760005950928
1722584702469716700,11.106716796875,-0.23235799372196198,1.563359022140503,-0.4501760005950928
1722584702479689700,11.116689697265626,0.2527239918708801,0.6883839964866638,-0.14372499287128448
1722584702489662700,11.126662841796875,0.2527239918708801,0.6883839964866638,-0.14372499287128448
1722584702499650300,11.136650390625,-0.18429900705814362,-0.039758000522851944,-0.33764299750328064
1722584702509638100,11.14663818359375,-0.18429900705814362,-0.039758000522851944,-0.33764299750328064
1722584702519617800,11.15661767578125,-1.8135349750518799,-1.0760879516601562,0.09789799898862839
1722584702529597700,11.16659765625,-1.8135349750518799,-1.0760879516601562,0.09789799898862839
1722584702539573500,11.176573486328126,-0.9241080284118652,-1.1807550191879272,0.1191129982471466
1722584702549549600,11.186549560546876,-0.9241080284118652,-1.1807550191879272,0.1191129982471466
1722584702559538700,11.19653857421875,-0.2594650089740753,-1.0448529720306396,-0.10033799707889557
1722584702569528000,11.206528076171875,-0.2594650089740753,-1.0448529720306396,-0.10033799707889557
1722584702579515400,11.216515380859375,0.627888023853302,-0.5932360291481018,0.05597500130534172
1722584702589503000,11.2265029296875,0.627888023853302,-0.5932360291481018,0.05597500130534172
1722584702599477500,11.2364775390625,-0.2568820118904114,-0.6656839847564697,0.2202569991350174
1722584702609452300,11.246452392578124,-0.2568820118904114,-0.6656839847564697,0.2202569991350174
1722584702619430100,11.25643017578125,0.5932239890098572,-0.32322099804878235,0.05176699906587601
1722584702629408000,11.266407958984376,0.5932239890098572,-0.32322099804878235,0.05176699906587601
1722584702639396900,11.27639697265625,1.0232629776000977,0.08229400217533112,0.5785989761352539
1722584702649386000,11.286385986328124,1.0232629776000977,0.08229400217533112,0.5785989761352539
1722584702659376600,11.296376708984376,-0.8238440155982971,-0.11402499675750732,-0.30003198981285095
1722584702669367600,11.306367431640625,-0.8238440155982971,-0.11402499675750732,-0.30003198981285095
1722584702679342600,11.316342529296875,-0.17601799964904785,0.15030699968338013,-0.31367599964141846
1722584702689317400,11.3263173828125,-0.17601799964904785,0.15030699968338013,-0.31367599964141846
1722584702699281000,11.336281005859375,0.8151620030403137,0.02144799940288067,-0.6342599987983704
1722584702709244200,11.346244140625,0.8151620030403137,0.02144799940288067,-0.6342599987983704
1722584702719213800,11.3562138671875,-0.45309901237487793,0.031525999307632446,-0.3161349892616272
1722584702729183700,11.366183837890626,-0.45309901237487793,0.031525999307632446,-0.3161349892616272
1722584702739148500,11.3761484375,0.020041000097990036,0.26445698738098145,-0.21057599782943726
1722584702749113300,11.38611328125,0.020041000097990036,0.26445698738098145,-0.21057599782943726
1722584702759091500,11.396091552734376,1.0440080165863037,0.4246230125427246,0.4372659921646118
1722584702769069600,11.406069580078125,1.0440080165863037,0.4246230125427246,0.4372659921646118
1722584702779048700,11.416048583984375,0.48877400159835815,0.25780901312828064,0.5429620146751404
1722584702789028000,11.426028076171875,0.48877400159835815,0.25780901312828064,0.5429620146751404
1722584702798992400,11.435992431640624,-0.7643870115280151,0.33926498889923096,0.16786900162696838
1722584702808956700,11.445956787109376,-0.7643870115280151,0.33926498889923096,0.16786900162696838
1722584702818949000,11.45594921875,0.723406970500946,-0.19887499511241913,0.5563840270042419
1722584702828941600,11.465941650390626,0.723406970500946,-0.19887499511241913,0.5563840270042419
1722584702838929400,11.475929443359375,0.08144000172615051,0.043754998594522476,0.24335899949073792
1722584702848917200,11.485917236328126,0.08144000172615051,0.043754998594522476,0.24335899949073792
1722584702858907000,11.495906982421875,-0.884522020816803,0.28596898913383484,0.11524400115013123
1722584702868896300,11.505896240234375,-0.884522020816803,0.28596898913383484,0.11524400115013123
1722584702878884000,11.515884033203125,-0.4167799949645996,-0.9591720104217529,-0.39277300238609314
1722584702888871700,11.52587158203125,-0.4167799949645996,-0.9591720104217529,-0.39277300238609314
1722584702898857700,11.535857666015625,1.298967957496643,-0.40372899174690247,0.49995899200439453
1722584702908844000,11.545843994140625,1.298967957496643,-0.40372899174690247,0.49995899200439453
1722584702918809300,11.555809326171875,-2.3143820762634277,-0.23677900433540344,-0.07011400163173676
1722584702928775000,11.56577490234375,-2.3143820762634277,-0.23677900433540344,-0.07011400163173676
1722584702938754000,11.575754150390624,0.2877900004386902,-0.32740798592567444,-0.08920499682426453
1722584702948733000,11.58573291015625,0.2877900004386902,-0.32740798592567444,-0.08920499682426453
1722584702958709800,11.595709716796875,0.2961849868297577,-0.959185004234314,0.2802189886569977
1722584702968686600,11.6056865234375,0.2961849868297577,-0.959185004234314,0.2802189886569977
1722584702978673200,11.615673095703125,0.912693977355957,-0.012399000115692616,0.5015190243721008
1722584702988659700,11.62565966796875,0.912693977355957,-0.012399000115692616,0.5015190243721008
1722584702998635300,11.63563525390625,-1.85214102268219,-0.8611969947814941,0.04140700027346611
1722584703008610600,11.645610595703126,-1.85214102268219,-0.8611969947814941,0.04140700027346611
1722584703018587100,11.655587158203126,0.02938699908554554,-0.7033169865608215,0.02970300056040287
1722584703028564000,11.66556396484375,0.02938699908554554,-0.7033169865608215,0.02970300056040287
1722584703038554600,11.6755546875,-0.8546980023384094,-0.6948450207710266,-0.2954770028591156
1722584703048545300,11.685545166015626,-0.8546980023384094,-0.6948450207710266,-0.2954770028591156
1722584703058534000,11.695533935546875,-1.4104950428009033,-1.3139959573745728,-0.6971290111541748
1722584703068522200,11.705522216796876,-1.4104950428009033,-1.3139959573745728,-0.6971290111541748
1722584703078510000,11.715510009765625,-2.013659954071045,-0.5395050048828125,-0.6937959790229797
1722584703088498000,11.725497802734376,-2.013659954071045,-0.5395050048828125,-0.6937959790229797
1722584703098462200,11.735462158203125,0.6298999786376953,-0.8225100040435791,-0.038665998727083206
1722584703108426800,11.7454267578125,0.6298999786376953,-0.8225100040435791,-0.038665998727083206
1722584703118403600,11.755403564453125,2.511104106903076,0.19741100072860718,-0.6463180184364319
1722584703128380700,11.765380615234376,2.511104106903076,0.19741100072860718,-0.6463180184364319
1722584703138358800,11.77535888671875,0.9379270076751709,0.827148973941803,-0.05817300081253052
1722584703148337000,11.7853369140625,0.9379270076751709,0.827148973941803,-0.05817300081253052
1722584703158315300,11.795315185546874,-0.63544100522995,1.0756460428237915,0.523938000202179
1722584703168293600,11.805293701171875,-0.63544100522995,1.0756460428237915,0.523938000202179
1722584703178258700,11.8152587890625,1.7588399648666382,0.223798006772995,0.4483869969844818
1722584703188223500,11.825223388671875,1.7588399648666382,0.223798006772995,0.4483869969844818
1722584703198215700,11.835215576171874,-0.8841059803962708,-0.910893976688385,0.22173699736595154
1722584703208207600,11.84520751953125,-0.8841059803962708,-0.910893976688385,0.22173699736595154
1722584703218196000,11.855196044921875,-3.574902057647705,-1.7544389963150024,0.039781998842954636
1722584703228184300,11.865184326171875,-3.574902057647705,-1.7544389963150024,0.039781998842954636
1722584703238173400,11.87517333984375,-1.8003909587860107,-1.5509320497512817,0.3031870126724243
1722584703248162600,11.88516259765625,-1.8003909587860107,-1.5509320497512817,0.3031870126724243
1722584703258153000,11.895153076171875,-2.6582651138305664,-2.2306270599365234,0.18811899423599243
1722584703268143600,11.9051435546875,-2.6582651138305664,-2.2306270599365234,0.18811899423599243
1722584703278121500,11.91512158203125,-3.6013660430908203,-2.2830541133880615,0.15154500305652618
1722584703288099300,11.925099365234376,-3.6013660430908203,-2.2830541133880615,0.15154500305652618
1722584703298088400,11.93508837890625,-4.274713039398193,-2.840643882751465,0.060058001428842545
1722584703308077600,11.94507763671875,-4.274713039398193,-2.840643882751465,0.060058001428842545
1722584703318061800,11.955061767578124,-1.4964189529418945,-2.441720962524414,0.10968100279569626
1722584703328046000,11.965046142578124,-1.4964189529418945,-2.441720962524414,0.10968100279569626
1722584703338030300,11.9750302734375,0.5342770218849182,-1.470900058746338,0.8650659918785095
1722584703348014600,11.9850146484375,0.5342770218849182,-1.470900058746338,0.8650659918785095
1722584703357998300,11.994998291015625,-0.7556419968605042,-0.8094149827957153,0.6731190085411072
1722584703367981800,12.00498193359375,-0.7556419968605042,-0.8094149827957153,0.6731190085411072
1722584703377958400,12.01495849609375,3.218090057373047,-0.9358980059623718,0.24055899679660797
1722584703387935200,12.024935302734375,3.218090057373047,-0.9358980059623718,0.24055899679660797
1722584703397917700,12.034917724609375,5.501171112060547,-0.9044269919395447,0.7218899726867676
1722584703407900000,12.04489990234375,5.501171112060547,-0.9044269919395447,0.7218899726867676
1722584703417878300,12.054878173828126,2.431978940963745,2.3232040405273438,0.557233989238739
1722584703427856600,12.064856689453125,2.431978940963745,2.3232040405273438,0.557233989238739
1722584703437822000,12.074822021484374,2.306757926940918,-0.7867670059204102,-1.9718819856643677
1722584703447787300,12.084787353515624,2.306757926940918,-0.7867670059204102,-1.9718819856643677
1722584703457765400,12.094765380859375,3.175626039505005,4.256586074829102,-0.23504899442195892
1722584703467743200,12.1047431640625,3.175626039505005,4.256586074829102,-0.23504899442195892
1722584703477707300,12.114707275390625,3.8955180644989014,4.302200794219971,-0.07076500356197357
1722584703487671000,12.124671142578125,3.8955180644989014,4.302200794219971,-0.07076500356197357
1722584703497656000,12.134656005859375,3.6545920372009277,4.11207389831543,-0.8530539870262146
1722584703507641000,12.14464111328125,3.6545920372009277,4.11207389831543,-0.8530539870262146
1722584703517615400,12.154615478515625,1.5221400260925293,3.7472729682922363,-1.3411730527877808
1722584703527590000,12.16458984375,1.5221400260925293,3.7472729682922363,-1.3411730527877808
1722584703537555500,12.174555419921875,3.579041004180908,2.348392963409424,-1.1411149501800537
1722584703547521300,12.184521240234375,3.579041004180908,2.348392963409424,-1.1411149501800537
1722584703557501400,12.19450146484375,-2.1671841144561768,2.953946113586426,0.7398399710655212
1722584703567481300,12.2044814453125,-2.1671841144561768,2.953946113586426,0.7398399710655212
1722584703577458000,12.2144580078125,1.7159509658813477,2.841398000717163,0.1077369973063469
1722584703587434500,12.2244345703125,1.7159509658813477,2.841398000717163,0.1077369973063469
1722584703597420800,12.2344208984375,2.553571939468384,1.9987510442733765,0.0487620010972023
1722584703607406800,12.24440673828125,2.553571939468384,1.9987510442733765,0.0487620010972023
1722584703617389800,12.254389892578125,0.3957439959049225,2.3265209197998047,1.9370490312576294
1722584703627372800,12.264372802734375,0.3957439959049225,2.3265209197998047,1.9370490312576294
1722584703637340200,12.274340087890625,-0.6339200139045715,-0.170974001288414,0.9183430075645447
1722584703647307500,12.2843076171875,-0.6339200139045715,-0.170974001288414,0.9183430075645447
1722584703657283300,12.294283447265625,-1.6355279684066772,0.5765359997749329,-0.42514899373054504
1722584703667259000,12.3042587890625,-1.6355279684066772,0.5765359997749329,-0.42514899373054504
1722584703677249500,12.31424951171875,1.6695979833602905,-0.5133159756660461,-0.8735399842262268
1722584703687240000,12.324239990234375,1.6695979833602905,-0.5133159756660461,-0.8735399842262268
1722584703697228500,12.334228515625,0.9742040038108826,-0.48826199769973755,-0.4118730127811432
1722584703707217200,12.344217041015625,0.9742040038108826,-0.48826199769973755,-0.4118730127811432
1722584703717198600,12.354198486328125,0.37465900182724,0.15777400135993958,-0.26076099276542664
1722584703727180000,12.364179931640624,0.37465900182724,0.15777400135993958,-0.26076099276542664
1722584703737160400,12.374160400390625,-1.6560779809951782,-0.9526540040969849,-1.226153016090393
1722584703747140900,12.384140869140625,-1.6560779809951782,-0.9526540040969849,-1.226153016090393
1722584703757133300,12.39413330078125,1.3418469429016113,0.7673659920692444,-0.21006999909877777
1722584703767125800,12.404125732421875,1.3418469429016113,0.7673659920692444,-0.21006999909877777
1722584703777111600,12.414111572265625,-1.1718159914016724,-0.17937800288200378,0.010805999860167503
1722584703787097000,12.42409716796875,-1.1718159914016724,-0.17937800288200378,0.010805999860167503
1722584703797076200,12.434076171875,-3.4864580631256104,-0.1929900050163269,0.1440649926662445
1722584703807055400,12.444055419921876,-3.4864580631256104,-0.1929900050163269,0.1440649926662445
1722584703817044500,12.45404443359375,-2.486855983734131,-1.0346449613571167,0.46959298849105835
1722584703827033600,12.46403369140625,-2.486855983734131,-1.0346449613571167,0.46959298849105835
1722584703837012000,12.474011962890625,-2.8542590141296387,-2.585205078125,0.6867390275001526
1722584703846990600,12.483990478515626,-2.8542590141296387,-2.585205078125,0.6867390275001526
1722584703856966700,12.493966552734374,-3.058919906616211,-1.0922600030899048,0.6478760242462158
1722584703866942700,12.503942626953124,-3.058919906616211,-1.0922600030899048,0.6478760242462158
1722584703876922000,12.513922119140625,-2.1161999702453613,-0.0832739993929863,1.3354209661483765
