time,seconds_elapsed,z,y,x
1722585142865993000,-0.342007080078125,-0.41601699590682983,0.20118500292301178,-0.04012100026011467
1722585142885899500,-0.3221005859375,-0.41601699590682983,0.20118500292301178,-0.04012100026011467
1722585142905806000,-0.30219384765625,-0.41601699590682983,0.20118500292301178,-0.04012100026011467
1722585142925712600,-0.282287353515625,-0.41601699590682983,0.20118500292301178,-0.04012100026011467
1722585142945619200,-0.262380859375,-0.41601699590682983,0.20118500292301178,-0.04012100026011467
1722585142965525800,-0.24247412109375,-0.41601699590682983,0.20118500292301178,-0.04012100026011467
1722585142985432000,-0.22256787109375,-0.41601699590682983,0.20118500292301178,-0.04012100026011467
1722585143005338600,-0.202661376953125,-0.41601699590682983,0.20118500292301178,-0.04012100026011467
1722585143025245200,-0.1827548828125,-0.41601699590682983,0.20118500292301178,-0.04012100026011467
1722585143045151700,-0.16284814453125,-0.41601699590682983,0.20118500292301178,-0.04012100026011467
1722585143065058300,-0.142941650390625,-0.41601699590682983,0.20118500292301178,-0.04012100026011467
1722585143084968000,-0.123031982421875,-0.41601699590682983,0.20118500292301178,-0.04012100026011467
1722585143104877600,-0.103122314453125,-0.41601699590682983,0.20118500292301178,-0.04012100026011467
1722585143124787200,-0.083212890625,-0.41601699590682983,0.20118500292301178,-0.04012100026011467
1722585143144696800,-0.06330322265625,-0.41601699590682983,0.20118500292301178,-0.04012100026011467
1722585143164606500,-0.0433935546875,-0.41601699590682983,0.20118500292301178,-0.04012100026011467
1722585143184516000,-0.02348388671875,-0.41601699590682983,0.20118500292301178,-0.04012100026011467
1722585143204425700,-0.00357421875,-0.41601699590682983,0.20118500292301178,-0.04012100026011467
1722585143224335400,0.01633544921875,-0.41601699590682983,0.20118500292301178,-0.04012100026011467
1722585143244245000,0.036244873046875,-0.41601699590682983,0.20118500292301178,-0.04012100026011467
1722585143264154600,0.056154541015625,-0.41601699590682983,0.20118500292301178,-0.04012100026011467
1722585143284154600,0.076154541015625,-0.41601699590682983,0.20118500292301178,-0.04012100026011467
1722585143304154600,0.096154541015625,-0.41601699590682983,0.20118500292301178,-0.04012100026011467
1722585143324154600,0.116154541015625,-0.41601699590682983,0.20118500292301178,-0.04012100026011467
1722585143344154600,0.136154541015625,-0.41601699590682983,0.20118500292301178,-0.04012100026011467
1722585143364154600,0.156154541015625,-0.41601699590682983,0.20118500292301178,-0.04012100026011467
1722585143388373500,0.18037353515625,-1.1806050539016724,-1.0591399669647217,-0.27404698729515076
1722585143398373600,0.19037353515625,-1.1806050539016724,-1.0591399669647217,-0.27404698729515076
1722585143408359200,0.200359130859375,-0.3851169943809509,-0.5260949730873108,0.18404899537563324
1722585143418344700,0.2103447265625,-0.3851169943809509,-0.5260949730873108,0.18404899537563324
1722585143428335600,0.220335693359375,-1.60856294631958,-0.8578270077705383,-0.4484350085258484
1722585143438326800,0.230326904296875,-1.60856294631958,-0.8578270077705383,-0.4484350085258484
1722585143448315100,0.240315185546875,3.4983251094818115,0.5591800212860107,0.02798900008201599
1722585143458303500,0.250303466796875,3.4983251094818115,0.5591800212860107,0.02798900008201599
1722585143468289000,0.2602890625,-2.6407630443573,-0.4562169909477234,0.4943059980869293
1722585143478274600,0.270274658203125,-2.6407630443573,-0.4562169909477234,0.4943059980869293
1722585143488266000,0.280265869140625,1.4438029527664185,0.08922100067138672,-1.3797409534454346
1722585143498257700,0.290257568359375,1.4438029527664185,0.08922100067138672,-1.3797409534454346
1722585143508243500,0.300243408203125,-0.521399974822998,-0.05900400131940842,0.36345499753952026
1722585143518229200,0.310229248046875,-0.521399974822998,-0.05900400131940842,0.36345499753952026
1722585143528216800,0.320216796875,-2.9550509452819824,-0.7707970142364502,0.5244920253753662
1722585143538204400,0.330204345703125,-2.9550509452819824,-0.7707970142364502,0.5244920253753662
1722585143548195800,0.34019580078125,3.1466550827026367,0.5716180205345154,-0.9429100155830383
1722585143558187000,0.35018701171875,3.1466550827026367,0.5716180205345154,-0.9429100155830383
1722585143568176000,0.360176025390625,-1.149893045425415,-0.1418430060148239,0.9296090006828308
1722585143578165200,0.370165283203125,-1.149893045425415,-0.1418430060148239,0.9296090006828308
1722585143588151600,0.380151611328125,0.5901049971580505,-0.5522580146789551,-0.6198779940605164
1722585143598137900,0.390137939453125,0.5901049971580505,-0.5522580146789551,-0.6198779940605164
1722585143608125200,0.400125244140625,0.2788879871368408,-2.05261492729187,-1.0852010250091553
1722585143618112500,0.410112548828125,0.2788879871368408,-2.05261492729187,-1.0852010250091553
1722585143628096800,0.4200966796875,-0.7563419938087463,-0.5462610125541687,0.5717520117759705
1722585143638081000,0.4300810546875,-0.7563419938087463,-0.5462610125541687,0.5717520117759705
1722585143648072700,0.44007275390625,-0.014585999771952629,-1.0618469715118408,-0.5814200043678284
1722585143658064100,0.450064208984375,-0.014585999771952629,-1.0618469715118408,-0.5814200043678284
1722585143668057300,0.460057373046875,1.0147219896316528,-1.4940279722213745,-0.08381299674510956
1722585143678050300,0.47005029296875,1.0147219896316528,-1.4940279722213745,-0.08381299674510956
1722585143688028000,0.48002783203125,1.5695430040359497,2.008085012435913,0.7777040004730225
1722585143698005500,0.490005615234375,1.5695430040359497,2.008085012435913,0.7777040004730225
1722585143708000800,0.500000732421875,-0.7738029956817627,-0.7031660079956055,-0.13317599892616272
1722585143717995800,0.509995849609375,-0.7738029956817627,-0.7031660079956055,-0.13317599892616272
1722585143727983000,0.519983154296875,3.223067045211792,1.3051090240478516,1.1565810441970825
1722585143737970200,0.52997021484375,3.223067045211792,1.3051090240478516,1.1565810441970825
1722585143747965700,0.539965576171875,-4.886940002441406,0.3068239986896515,0.78752201795578
1722585143757961200,0.549961181640625,-4.886940002441406,0.3068239986896515,0.78752201795578
1722585143767953700,0.55995361328125,0.05800599977374077,-0.63053297996521,-1.6804909706115723
1722585143777946000,0.569946044921875,0.05800599977374077,-0.63053297996521,-1.6804909706115723
1722585143787936800,0.579936767578125,1.097985029220581,0.3005949854850769,0.16679899394512177
1722585143797927700,0.589927734375,1.097985029220581,0.3005949854850769,0.16679899394512177
1722585143807916000,0.599916015625,-1.7499810457229614,-0.3556160032749176,0.6065719723701477
1722585143817904400,0.609904296875,-1.7499810457229614,-0.3556160032749176,0.6065719723701477
1722585143827894500,0.61989453125,-1.046726942062378,0.7026699781417847,-0.9570649862289429
1722585143837885000,0.629885009765625,-1.046726942062378,0.7026699781417847,-0.9570649862289429
1722585143847874300,0.639874267578125,2.1670238971710205,-0.21913500130176544,-0.4783720076084137
1722585143857863700,0.64986376953125,2.1670238971710205,-0.21913500130176544,-0.4783720076084137
1722585143867841000,0.659841064453125,0.35627299547195435,-1.3851139545440674,0.7341570258140564
1722585143877818400,0.669818359375,0.35627299547195435,-1.3851139545440674,0.7341570258140564
1722585143887803400,0.679803466796875,-1.9441239833831787,1.680616021156311,0.36763399839401245
1722585143897788200,0.6897880859375,-1.9441239833831787,1.680616021156311,0.36763399839401245
1722585143907778800,0.69977880859375,1.8189259767532349,-2.081094980239868,-1.754601001739502
1722585143917769200,0.709769287109375,1.8189259767532349,-2.081094980239868,-1.754601001739502
1722585143927761700,0.71976171875,4.292978763580322,-0.055073998868465424,0.10806199908256531
1722585143937753900,0.72975390625,4.292978763580322,-0.055073998868465424,0.10806199908256531
1722585143947741700,0.73974169921875,-4.297505855560303,-2.426137924194336,0.4477050006389618
1722585143957729300,0.749729248046875,-4.297505855560303,-2.426137924194336,0.4477050006389618
1722585143967721200,0.75972119140625,1.349105954170227,-1.8180400133132935,-0.26372700929641724
1722585143977713200,0.769713134765625,1.349105954170227,-1.8180400133132935,-0.26372700929641724
1722585143987702300,0.779702392578125,2.7409539222717285,-1.304394006729126,-0.6512979865074158
1722585143997691100,0.789691162109375,2.7409539222717285,-1.304394006729126,-0.6512979865074158
1722585144007682300,0.799682373046875,0.5868080258369446,-0.2669360041618347,-0.5928260087966919
1722585144017673500,0.809673583984375,0.5868080258369446,-0.2669360041618347,-0.5928260087966919
1722585144027664000,0.819663818359375,2.433824062347412,0.700884997844696,1.2322280406951904
1722585144037654500,0.829654541015625,2.433824062347412,0.700884997844696,1.2322280406951904
1722585144047646500,0.839646484375,-1.3408540487289429,0.5144000053405762,2.178006887435913
1722585144057638400,0.849638427734375,-1.3408540487289429,0.5144000053405762,2.178006887435913
1722585144067628000,0.8596279296875,0.04970899969339371,0.08389999717473984,-1.8282690048217773
1722585144077617700,0.86961767578125,0.04970899969339371,0.08389999717473984,-1.8282690048217773
1722585144087596000,0.879595947265625,1.505645990371704,-0.024477999657392502,-0.870697021484375
1722585144097574400,0.889574462890625,1.505645990371704,-0.024477999657392502,-0.870697021484375
1722585144107566000,0.899566162109375,0.5370060205459595,-3.505894899368286,3.379784107208252
1722585144117558000,0.90955810546875,0.5370060205459595,-3.505894899368286,3.379784107208252
1722585144127543800,0.919543701171875,-4.490033149719238,-3.5736589431762695,0.5794699788093567
1722585144137529600,0.929529541015625,-4.490033149719238,-3.5736589431762695,0.5794699788093567
1722585144147518000,0.93951806640625,0.46706798672676086,-0.03357899934053421,-1.5458409786224365
1722585144157506300,0.94950634765625,0.46706798672676086,-0.03357899934053421,-1.5458409786224365
1722585144167496200,0.95949609375,3.90323805809021,-0.5594689846038818,-0.5890640020370483
1722585144177486300,0.969486328125,3.90323805809021,-0.5594689846038818,-0.5890640020370483
1722585144187473200,0.97947314453125,2.583817958831787,1.464082956314087,1.723633050918579
1722585144197460000,0.9894599609375,2.583817958831787,1.464082956314087,1.723633050918579
1722585144207445800,0.99944580078125,2.901839017868042,-1.2910879850387573,-1.2198330163955688
1722585144217431600,1.009431640625,2.901839017868042,-1.2910879850387573,-1.2198330163955688
1722585144227399200,1.019399169921875,-0.22733600437641144,0.24814000725746155,-0.19805100560188293
1722585144237366800,1.02936669921875,-0.22733600437641144,0.24814000725746155,-0.19805100560188293
1722585144247363000,1.039363037109375,0.4848789870738983,-0.5326399803161621,-0.12872500717639923
1722585144257359600,1.049359619140625,0.4848789870738983,-0.5326399803161621,-0.12872500717639923
1722585144267335400,1.05933544921875,0.250887006521225,-1.0044230222702026,-0.6954399943351746
1722585144277311200,1.069311279296875,0.250887006521225,-1.0044230222702026,-0.6954399943351746
1722585144287289900,1.079289794921875,1.6288330554962158,1.719223976135254,0.2890399992465973
1722585144297268500,1.0892685546875,1.6288330554962158,1.719223976135254,0.2890399992465973
1722585144307260000,1.099260009765625,1.562940001487732,1.050497055053711,0.239328995347023
1722585144317251300,1.109251220703125,1.562940001487732,1.050497055053711,0.239328995347023
1722585144327240400,1.119240478515625,-4.05427885055542,1.2722920179367065,0.47373899817466736
1722585144337229600,1.1292294921875,-4.05427885055542,1.2722920179367065,0.47373899817466736
1722585144347220000,1.139219970703125,0.506771981716156,0.46032899618148804,-0.7038440108299255
1722585144357210000,1.149210205078125,0.506771981716156,0.46032899618148804,-0.7038440108299255
1722585144367176000,1.159176025390625,-0.14184099435806274,0.3752799928188324,0.4642139971256256
1722585144377141500,1.1691416015625,-0.14184099435806274,0.3752799928188324,0.4642139971256256
1722585144387131600,1.179131591796875,-1.2583719491958618,1.7587189674377441,0.6006069779396057
1722585144397121800,1.189121826171875,-1.2583719491958618,1.7587189674377441,0.6006069779396057
1722585144407099100,1.19909912109375,-0.9123169779777527,-1.4044209718704224,-1.433413028717041
1722585144417076700,1.20907666015625,-0.9123169779777527,-1.4044209718704224,-1.433413028717041
1722585144427055900,1.219055908203125,-0.14400500059127808,-1.054967999458313,0.6035410165786743
1722585144437034800,1.22903466796875,-0.14400500059127808,-1.054967999458313,0.6035410165786743
1722585144447025200,1.239025146484375,-1.216966986656189,1.1004070043563843,1.0693360567092896
1722585144457015800,1.249015869140625,-1.216966986656189,1.1004070043563843,1.0693360567092896
1722585144467006700,1.2590068359375,-0.4351629912853241,-1.8259830474853516,-1.19343900680542
1722585144476998000,1.268997802734375,-0.4351629912853241,-1.8259830474853516,-1.19343900680542
1722585144486988300,1.27898828125,0.4923419952392578,1.2871429920196533,0.07092099636793137
1722585144496978400,1.288978515625,0.4923419952392578,1.2871429920196533,0.07092099636793137
1722585144506958800,1.298958740234375,-1.5119450092315674,-1.0829529762268066,0.3003210127353668
1722585144516939500,1.308939453125,-1.5119450092315674,-1.0829529762268066,0.3003210127353668
1722585144526928600,1.3189287109375,-0.22240899503231049,0.633683979511261,0.13517600297927856
1722585144536917800,1.328917724609375,-0.22240899503231049,0.633683979511261,0.13517600297927856
1722585144546911000,1.338910888671875,0.6025969982147217,-0.6322010159492493,-0.723887026309967
1722585144556904000,1.348904052734375,0.6025969982147217,-0.6322010159492493,-0.723887026309967
1722585144566889500,1.358889404296875,-1.1771620512008667,0.5271549820899963,-0.09350500255823135
1722585144576875000,1.368875,-1.1771620512008667,0.5271549820899963,-0.09350500255823135
1722585144586865000,1.378864990234375,-0.9618340134620667,1.3786580562591553,-0.3126380145549774
1722585144596855000,1.38885498046875,-0.9618340134620667,1.3786580562591553,-0.3126380145549774
1722585144606836000,1.3988359375,0.050262998789548874,1.2681740522384644,-0.2132200002670288
1722585144616817200,1.408817138671875,0.050262998789548874,1.2681740522384644,-0.2132200002670288
1722585144626798300,1.41879833984375,-0.18486900627613068,0.8411629796028137,0.43499699234962463
1722585144636779500,1.428779541015625,-0.18486900627613068,0.8411629796028137,0.43499699234962463
1722585144646760400,1.438760498046875,-1.9722779989242554,3.003477096557617,0.5239319801330566
1722585144656741400,1.448741455078125,-1.9722779989242554,3.003477096557617,0.5239319801330566
1722585144666734000,1.458734130859375,-2.057007074356079,1.8837330341339111,-0.3260279893875122
1722585144676726800,1.468726806640625,-2.057007074356079,1.8837330341339111,-0.3260279893875122
1722585144686716000,1.4787158203125,0.6857039928436279,0.20152799785137177,0.22182700037956238
1722585144696704800,1.488704833984375,0.6857039928436279,0.20152799785137177,0.22182700037956238
1722585144706694400,1.4986943359375,-1.576225996017456,0.36162498593330383,0.5970439910888672
1722585144716684000,1.50868408203125,-1.576225996017456,0.36162498593330383,0.5970439910888672
1722585144726665200,1.518665283203125,-4.703309059143066,-0.3850969970226288,-0.44105100631713867
1722585144736646400,1.528646484375,-4.703309059143066,-0.3850969970226288,-0.44105100631713867
1722585144746612200,1.5386123046875,1.0091060400009155,0.2019370049238205,-0.15089300274848938
1722585144756577800,1.548577880859375,1.0091060400009155,0.2019370049238205,-0.15089300274848938
1722585144766565600,1.558565673828125,1.1724539995193481,0.4217030107975006,0.4584369957447052
1722585144776553500,1.568553466796875,1.1724539995193481,0.4217030107975006,0.4584369957447052
1722585144786544400,1.57854443359375,-3.352613925933838,-0.5943719744682312,0.13018399477005005
1722585144796535300,1.588535400390625,-3.352613925933838,-0.5943719744682312,0.13018399477005005
1722585144806525400,1.598525390625,1.4222110509872437,0.381415992975235,0.046549998223781586
1722585144816515800,1.608515869140625,1.4222110509872437,0.381415992975235,0.046549998223781586
1722585144826503200,1.618503173828125,2.7404279708862305,-0.2765839993953705,0.6455259919166565
1722585144836490500,1.628490478515625,2.7404279708862305,-0.2765839993953705,0.6455259919166565
1722585144846469400,1.638469482421875,-1.073868989944458,-0.33131998777389526,-0.23237599432468414
1722585144856448300,1.6484482421875,-1.073868989944458,-0.33131998777389526,-0.23237599432468414
1722585144866441200,1.658441162109375,-0.8135460019111633,0.49228599667549133,-0.5638880133628845
1722585144876434000,1.668433837890625,-0.8135460019111633,0.49228599667549133,-0.5638880133628845
1722585144886415000,1.6784150390625,1.7332409620285034,-0.898514986038208,-0.10077700018882751
1722585144896396000,1.68839599609375,1.7332409620285034,-0.898514986038208,-0.10077700018882751
1722585144906376700,1.698376708984375,0.5923629999160767,0.15415599942207336,0.35674700140953064
1722585144916357400,1.708357421875,0.5923629999160767,0.15415599942207336,0.35674700140953064
1722585144926336500,1.71833642578125,-2.2104361057281494,-0.04685699939727783,-0.33631500601768494
1722585144936316000,1.72831591796875,-2.2104361057281494,-0.04685699939727783,-0.33631500601768494
1722585144946307800,1.738307861328125,1.1514999866485596,0.35708099603652954,0.1359259933233261
1722585144956299800,1.7482998046875,1.1514999866485596,0.35708099603652954,0.1359259933233261
1722585144966275600,1.758275634765625,1.0645649433135986,-0.11724799871444702,-0.081324003636837
1722585144976251400,1.76825146484375,1.0645649433135986,-0.11724799871444702,-0.081324003636837
1722585144986242600,1.77824267578125,-1.4483939409255981,0.3629159927368164,-0.15194100141525269
1722585144996233700,1.788233642578125,-1.4483939409255981,0.3629159927368164,-0.15194100141525269
1722585145006227000,1.79822705078125,-1.2120319604873657,-0.035193998366594315,0.1672469973564148
1722585145016220200,1.80822021484375,-1.2120319604873657,-0.035193998366594315,0.1672469973564148
1722585145026197800,1.81819775390625,1.1625230312347412,-0.20952700078487396,-0.061059001833200455
1722585145036175400,1.82817529296875,1.1625230312347412,-0.20952700078487396,-0.061059001833200455
1722585145046153000,1.838153076171875,-0.3180589973926544,0.8832169771194458,0.2535269856452942
1722585145056130800,1.848130859375,-0.3180589973926544,0.8832169771194458,0.2535269856452942
1722585145066107600,1.858107666015625,-1.2322989702224731,-0.30326300859451294,-0.0610710009932518
1722585145076084200,1.868084228515625,-1.2322989702224731,-0.30326300859451294,-0.0610710009932518
1722585145086051800,1.8780517578125,0.9340959787368774,0.1349470019340515,-0.1445319950580597
1722585145096019200,1.888019287109375,0.9340959787368774,0.1349470019340515,-0.1445319950580597
1722585145106009600,1.898009521484375,0.028241999447345734,-0.19878500699996948,0.08482299745082855
1722585145115999700,1.907999755859375,0.028241999447345734,-0.19878500699996948,0.08482299745082855
1722585145125968000,1.9179677734375,-0.9677749872207642,0.09897299855947495,-0.5431740283966064
1722585145135936000,1.92793603515625,-0.9677749872207642,0.09897299855947495,-0.5431740283966064
1722585145145926400,1.937926513671875,-0.007460999768227339,-0.37689998745918274,-0.2945930063724518
1722585145155916800,1.947916748046875,-0.007460999768227339,-0.37689998745918274,-0.2945930063724518
1722585145165883000,1.9578828125,0.8632199764251709,0.3229219913482666,0.18107900023460388
1722585145175849200,1.96784912109375,0.8632199764251709,0.3229219913482666,0.18107900023460388
1722585145185839600,1.977839599609375,-0.866254985332489,0.008042999543249607,-0.5827569961547852
1722585145195830000,1.987830078125,-0.866254985332489,0.008042999543249607,-0.5827569961547852
1722585145205811700,1.997811767578125,-0.30729201436042786,0.38722801208496094,-0.07394500076770782
1722585145215793700,2.007793701171875,-0.30729201436042786,0.38722801208496094,-0.07394500076770782
1722585145225773800,2.01777392578125,0.1605439931154251,0.15078599750995636,-0.12398699671030045
1722585145235754000,2.02775390625,0.1605439931154251,0.15078599750995636,-0.12398699671030045
1722585145245729500,2.0377294921875,0.41367900371551514,0.30755099654197693,-0.01570899970829487
1722585145255705300,2.047705322265625,0.41367900371551514,0.30755099654197693,-0.01570899970829487
1722585145265698000,2.057697998046875,-0.36093199253082275,0.5281469821929932,0.4812670052051544
1722585145275690800,2.067690673828125,-0.36093199253082275,0.5281469821929932,0.4812670052051544
1722585145285666000,2.077666015625,-0.17369000613689423,-0.032554998993873596,-0.13117699325084686
1722585145295641600,2.0876416015625,-0.17369000613689423,-0.032554998993873596,-0.13117699325084686
1722585145305632000,2.097632080078125,0.9385070204734802,0.18469199538230896,0.3330110013484955
1722585145315622700,2.10762255859375,0.9385070204734802,0.18469199538230896,0.3330110013484955
1722585145325600800,2.117600830078125,-0.13868600130081177,-0.5303559899330139,0.23603299260139465
1722585145335579100,2.1275791015625,-0.13868600130081177,-0.5303559899330139,0.23603299260139465
1722585145345569800,2.13756982421875,0.40710100531578064,-0.6928409934043884,0.1448500007390976
1722585145355560200,2.147560302734375,0.40710100531578064,-0.6928409934043884,0.1448500007390976
1722585145365530400,2.1575302734375,-0.005448999814689159,-0.829882025718689,0.0374629981815815
1722585145375500800,2.167500732421875,-0.005448999814689159,-0.829882025718689,0.0374629981815815
1722585145385489000,2.177489013671875,0.9629240036010742,-1.4216970205307007,0.09617999941110611
1722585145395476700,2.187476806640625,0.9629240036010742,-1.4216970205307007,0.09617999941110611
1722585145405463600,2.197463623046875,0.7260010242462158,0.8993319869041443,0.45746299624443054
1722585145415450000,2.2074501953125,0.7260010242462158,0.8993319869041443,0.45746299624443054
1722585145425439700,2.217439697265625,-0.9111419916152954,-1.4131619930267334,-0.1880519986152649
1722585145435429400,2.227429443359375,-0.9111419916152954,-1.4131619930267334,-0.1880519986152649
1722585145445409800,2.237409912109375,3.0940558910369873,-0.02964399941265583,0.19084100425243378
1722585145455390200,2.24739013671875,3.0940558910369873,-0.02964399941265583,0.19084100425243378
1722585145465375700,2.257375732421875,0.7128360271453857,-0.5123569965362549,-0.21613599359989166
1722585145475361000,2.267361083984375,0.7128360271453857,-0.5123569965362549,-0.21613599359989166
1722585145485352700,2.277352783203125,1.5263429880142212,0.7297899723052979,-0.8479269742965698
1722585145495344400,2.287344482421875,1.5263429880142212,0.7297899723052979,-0.8479269742965698
1722585145505313800,2.297313720703125,1.8434449434280396,0.017771000042557716,-0.44188299775123596
1722585145515283500,2.307283447265625,1.8434449434280396,0.017771000042557716,-0.44188299775123596
1722585145525252000,2.317252197265625,0.5248339772224426,-1.787392020225525,-0.41174501180648804
1722585145535220700,2.327220703125,0.5248339772224426,-1.787392020225525,-0.41174501180648804
1722585145545212700,2.337212646484375,0.20945799350738525,1.9766199588775635,0.3373419940471649
1722585145555204900,2.347204833984375,0.20945799350738525,1.9766199588775635,0.3373419940471649
1722585145565194200,2.3571943359375,-0.6846550107002258,-0.6396530270576477,-0.48903900384902954
1722585145575183600,2.36718359375,-0.6846550107002258,-0.6396530270576477,-0.48903900384902954
1722585145585172500,2.37717236328125,2.9849491119384766,1.6732759475708008,0.11618900299072266
1722585145595161300,2.387161376953125,2.9849491119384766,1.6732759475708008,0.11618900299072266
1722585145605151000,2.39715087890625,-2.1643409729003906,1.3018560409545898,1.6079000234603882
1722585145615140900,2.407140869140625,-2.1643409729003906,1.3018560409545898,1.6079000234603882
1722585145625116700,2.41711669921875,-5.459230899810791,1.7891629934310913,0.9945799708366394
1722585145635092500,2.427092529296875,-5.459230899810791,1.7891629934310913,0.9945799708366394
1722585145645059000,2.43705908203125,2.338628053665161,0.056007999926805496,-0.3921850025653839
1722585145655025700,2.447025634765625,2.338628053665161,0.056007999926805496,-0.3921850025653839
1722585145665005000,2.457005126953125,2.2204220294952393,0.0013790000230073929,-0.2759929895401001
1722585145674984200,2.466984130859375,2.2204220294952393,0.0013790000230073929,-0.2759929895401001
1722585145684972500,2.47697265625,-1.3258899450302124,-2.3858399391174316,-0.2426529973745346
1722585145694961200,2.486961181640625,-1.3258899450302124,-2.3858399391174316,-0.2426529973745346
1722585145704950800,2.49695068359375,-3.195924997329712,-3.3723480701446533,-0.3441160023212433
1722585145714940400,2.5069404296875,-3.195924997329712,-3.3723480701446533,-0.3441160023212433
1722585145724921300,2.51692138671875,1.3394969701766968,-0.2757500112056732,0.023065999150276184
1722585145734902500,2.526902587890625,1.3394969701766968,-0.2757500112056732,0.023065999150276184
1722585145744893700,2.536893798828125,2.2880098819732666,-1.6127159595489502,-1.3957840204238892
1722585145754884900,2.546884765625,2.2880098819732666,-1.6127159595489502,-1.3957840204238892
1722585145764876500,2.55687646484375,0.5766410231590271,3.4021520614624023,0.005849000066518784
1722585145774868200,2.5668681640625,0.5766410231590271,3.4021520614624023,0.005849000066518784
1722585145784835000,2.5768349609375,-2.1837730407714844,-0.20477600395679474,0.35485100746154785
1722585145794802000,2.586802001953125,-2.1837730407714844,-0.20477600395679474,0.35485100746154785
1722585145804792800,2.596792724609375,1.130797028541565,-1.6183550357818604,0.21439799666404724
1722585145814783700,2.60678369140625,1.130797028541565,-1.6183550357818604,0.21439799666404724
1722585145824759800,2.616759765625,0.9579960107803345,-1.0279109477996826,0.8208240270614624
1722585145834735900,2.62673583984375,0.9579960107803345,-1.0279109477996826,0.8208240270614624
1722585145844714200,2.63671435546875,-2.0889689922332764,1.359805941581726,-0.423007994890213
1722585145854692400,2.6466923828125,-2.0889689922332764,1.359805941581726,-0.423007994890213
1722585145864660500,2.656660400390625,1.3816649913787842,0.8092650175094604,-1.1929659843444824
1722585145874628400,2.66662841796875,1.3816649913787842,0.8092650175094604,-1.1929659843444824
1722585145884618800,2.67661865234375,3.925347089767456,-1.2128750085830688,0.06449099630117416
1722585145894609200,2.686609130859375,3.925347089767456,-1.2128750085830688,0.06449099630117416
1722585145904589600,2.696589599609375,-1.735703945159912,0.3953950107097626,-0.15842300653457642
1722585145914570000,2.706570068359375,-1.735703945159912,0.3953950107097626,-0.15842300653457642
1722585145924562700,2.716562744140625,-4.174965858459473,-0.6279289722442627,-0.9940000176429749
1722585145934555100,2.72655517578125,-4.174965858459473,-0.6279289722442627,-0.9940000176429749
1722585145944542700,2.736542724609375,1.927865982055664,1.2217309474945068,0.5610600113868713
1722585145954530600,2.746530517578125,1.927865982055664,1.2217309474945068,0.5610600113868713
1722585145964500700,2.756500732421875,2.817444086074829,0.7803750038146973,1.265813946723938
1722585145974471000,2.766470947265625,2.817444086074829,0.7803750038146973,1.265813946723938
1722585145984464100,2.776464111328125,3.5471549034118652,0.13122700154781342,-0.21229100227355957
1722585145994457300,2.786457275390625,3.5471549034118652,0.13122700154781342,-0.21229100227355957
1722585146004427000,2.796427001953125,-5.719672203063965,-0.28825101256370544,1.448330044746399
1722585146014396700,2.806396728515625,-5.719672203063965,-0.28825101256370544,1.448330044746399
1722585146024388400,2.816388427734375,1.1146429777145386,1.009052038192749,1.7508410215377808
1722585146034380000,2.826380126953125,1.1146429777145386,1.009052038192749,1.7508410215377808
1722585146044369400,2.836369384765625,3.1839349269866943,-2.136446952819824,-0.9332280158996582
1722585146054359000,2.846359130859375,3.1839349269866943,-2.136446952819824,-0.9332280158996582
1722585146064347400,2.856347412109375,3.362433910369873,-0.5607140064239502,-1.5396660566329956
1722585146074335700,2.866335693359375,3.362433910369873,-0.5607140064239502,-1.5396660566329956
1722585146084312000,2.87631201171875,-6.148890018463135,1.7221479415893555,0.7033479809761047
1722585146094288600,2.88628857421875,-6.148890018463135,1.7221479415893555,0.7033479809761047
1722585146104256300,2.89625634765625,-7.771174907684326,-0.41788598895072937,0.9671559929847717
1722585146114223900,2.906223876953125,-7.771174907684326,-0.41788598895072937,0.9671559929847717
1722585146124217300,2.91621728515625,0.6680319905281067,-4.395794868469238,-2.664936065673828
1722585146134210800,2.9262109375,0.6680319905281067,-4.395794868469238,-2.664936065673828
1722585146144191500,2.93619140625,2.7760488986968994,-2.056725025177002,-1.7724100351333618
1722585146154172000,2.946171875,2.7760488986968994,-2.056725025177002,-1.7724100351333618
1722585146164162800,2.956162841796875,-1.7164599895477295,-1.4592089653015137,3.4306509494781494
1722585146174153500,2.966153564453125,-1.7164599895477295,-1.4592089653015137,3.4306509494781494
1722585146184144600,2.97614453125,-1.6703009605407715,1.0505399703979492,2.4821369647979736
1722585146194135800,2.9861357421875,-1.6703009605407715,1.0505399703979492,2.4821369647979736
1722585146204129300,2.99612939453125,0.45529401302337646,0.049644000828266144,-2.4075310230255127
1722585146214122800,3.006122802734375,0.45529401302337646,0.049644000828266144,-2.4075310230255127
1722585146224115200,3.016115234375,4.061705112457275,-0.562915027141571,-1.3336149454116821
1722585146234107400,3.026107421875,4.061705112457275,-0.562915027141571,-1.3336149454116821
1722585146244082000,3.03608203125,-0.35262399911880493,-2.602339029312134,0.24867400527000427
1722585146254056400,3.046056396484375,-0.35262399911880493,-2.602339029312134,0.24867400527000427
1722585146264047900,3.0560478515625,-5.481686115264893,0.04758099839091301,-0.5952439904212952
1722585146274039300,3.066039306640625,-5.481686115264893,0.04758099839091301,-0.5952439904212952
1722585146284023600,3.0760234375,1.3328319787979126,2.0548200607299805,-0.3288379907608032
1722585146294008000,3.086008056640625,1.3328319787979126,2.0548200607299805,-0.3288379907608032
1722585146303995400,3.095995361328125,4.822659015655518,-1.3559329509735107,3.295485019683838
1722585146313983000,3.10598291015625,4.822659015655518,-1.3559329509735107,3.295485019683838
1722585146323972600,3.11597265625,3.6075849533081055,0.7860689759254456,2.6565890312194824
1722585146333962200,3.125962158203125,3.6075849533081055,0.7860689759254456,2.6565890312194824
1722585146343946800,3.13594677734375,-4.873948097229004,0.16770599782466888,-1.064160943031311
1722585146353931500,3.145931640625,-4.873948097229004,0.16770599782466888,-1.064160943031311
1722585146363922200,3.155922119140625,-1.6015009880065918,-2.526297092437744,-2.3912088871002197
1722585146373912800,3.165912841796875,-1.6015009880065918,-2.526297092437744,-2.3912088871002197
1722585146383902700,3.17590283203125,1.4797459840774536,0.567579984664917,-0.9958549737930298
1722585146393892600,3.185892578125,1.4797459840774536,0.567579984664917,-0.9958549737930298
1722585146403879700,3.195879638671875,0.8848199844360352,0.9322879910469055,0.009510000236332417
1722585146413866500,3.205866455078125,0.8848199844360352,0.9322879910469055,0.009510000236332417
1722585146423831000,3.2158310546875,0.007652000058442354,0.8583379983901978,0.48414701223373413
1722585146433795300,3.22579541015625,0.007652000058442354,0.8583379983901978,0.48414701223373413
1722585146443785700,3.23578564453125,0.017920000478625298,-0.9812440276145935,-0.2521350085735321
1722585146453776100,3.245776123046875,0.017920000478625298,-0.9812440276145935,-0.2521350085735321
1722585146463755500,3.255755615234375,-0.7252560257911682,1.419677972793579,0.15484699606895447
1722585146473735000,3.26573486328125,-0.7252560257911682,1.419677972793579,0.15484699606895447
1722585146483726800,3.275726806640625,-1.10629403591156,-1.0894360542297363,-2.214139938354492
1722585146493718500,3.285718505859375,-1.10629403591156,-1.0894360542297363,-2.214139938354492
1722585146503709700,3.295709716796875,-0.16060200333595276,0.4716250002384186,-0.11523400247097015
1722585146513700600,3.30570068359375,-0.16060200333595276,0.4716250002384186,-0.11523400247097015
1722585146523673900,3.315673828125,-1.2309969663619995,-0.7159069776535034,1.004032015800476
1722585146533647000,3.325647216796875,-1.2309969663619995,-0.7159069776535034,1.004032015800476
1722585146543625200,3.335625244140625,-1.6341160535812378,-1.3902100324630737,-0.15174600481987
1722585146553603300,3.345603271484375,-1.6341160535812378,-1.3902100324630737,-0.15174600481987
1722585146563580700,3.35558056640625,6.930267810821533,-2.934998035430908,-2.352992057800293
1722585146573558300,3.365558349609375,6.930267810821533,-2.934998035430908,-2.352992057800293
1722585146583539200,3.375539306640625,-1.7945020198822021,-0.5377179980278015,1.5433659553527832
1722585146593520000,3.38552001953125,-1.7945020198822021,-0.5377179980278015,1.5433659553527832
1722585146603506400,3.39550634765625,-2.2336409091949463,1.05308997631073,0.8557829856872559
1722585146613493000,3.405492919921875,-2.2336409091949463,1.05308997631073,0.8557829856872559
1722585146623483100,3.415483154296875,1.4101439714431763,-0.020116999745368958,-0.9710500240325928
1722585146633473500,3.4254736328125,1.4101439714431763,-0.020116999745368958,-0.9710500240325928
1722585146643461000,3.435461181640625,0.4938490092754364,1.9663699865341187,0.7349920272827148
1722585146653448700,3.44544873046875,0.4938490092754364,1.9663699865341187,0.7349920272827148
1722585146663440000,3.45543994140625,0.2541719973087311,3.652008056640625,0.9563779830932617
1722585146673431300,3.465431396484375,0.2541719973087311,3.652008056640625,0.9563779830932617
1722585146683417000,3.4754169921875,-0.8052359819412231,0.6184179782867432,-2.0978429317474365
1722585146693403000,3.48540283203125,-0.8052359819412231,0.6184179782867432,-2.0978429317474365
1722585146703385600,3.495385498046875,-3.0228259563446045,1.9331159591674805,2.2477519512176514
1722585146713368600,3.50536865234375,-3.0228259563446045,1.9331159591674805,2.2477519512176514
1722585146723354000,3.51535400390625,-1.500499963760376,2.947313070297241,3.435666084289551
1722585146733339600,3.525339599609375,-1.500499963760376,2.947313070297241,3.435666084289551
1722585146743327700,3.53532763671875,3.2378969192504883,0.1971839964389801,-1.1194299459457397
1722585146753315800,3.54531591796875,3.2378969192504883,0.1971839964389801,-1.1194299459457397
1722585146763303700,3.5553037109375,2.108452081680298,1.4649749994277954,-2.050055980682373
1722585146773291500,3.56529150390625,2.108452081680298,1.4649749994277954,-2.050055980682373
1722585146783279900,3.57527978515625,2.8049449920654297,1.599552035331726,0.1250160038471222
1722585146793268000,3.58526806640625,2.8049449920654297,1.599552035331726,0.1250160038471222
1722585146803251500,3.59525146484375,-4.814373970031738,-0.33264100551605225,0.6856099963188171
1722585146813234700,3.605234619140625,-4.814373970031738,-0.33264100551605225,0.6856099963188171
1722585146823224300,3.615224365234375,3.8551149368286133,0.6399359703063965,-0.04477899894118309
1722585146833214000,3.6252138671875,3.8551149368286133,0.6399359703063965,-0.04477899894118309
1722585146843204000,3.6352041015625,3.793097972869873,1.2998770475387573,1.100296974182129
1722585146853194200,3.6451943359375,3.793097972869873,1.2998770475387573,1.100296974182129
1722585146863183400,3.655183349609375,-2.836751937866211,-0.8360540270805359,-1.0375709533691406
1722585146873172500,3.66517236328125,-2.836751937866211,-0.8360540270805359,-1.0375709533691406
1722585146883164200,3.6751640625,-2.4742350578308105,1.4152920246124268,0.34347298741340637
1722585146893156000,3.685156005859375,-2.4742350578308105,1.4152920246124268,0.34347298741340637
1722585146903135000,3.695135009765625,-0.5824090242385864,-0.5234869718551636,0.005987999960780144
1722585146913114000,3.705114013671875,-0.5824090242385864,-0.5234869718551636,0.005987999960780144
1722585146923101200,3.71510107421875,2.0509660243988037,-2.0723910331726074,-1.8500349521636963
1722585146933088300,3.725088134765625,2.0509660243988037,-2.0723910331726074,-1.8500349521636963
1722585146943078000,3.735077880859375,0.1058730036020279,-0.5435609817504883,-0.3146350085735321
1722585146953067500,3.745067626953125,0.1058730036020279,-0.5435609817504883,-0.3146350085735321
1722585146963061800,3.755061767578125,-4.177515983581543,-0.4543130099773407,0.06346700340509415
1722585146973056000,3.765055908203125,-4.177515983581543,-0.4543130099773407,0.06346700340509415
1722585146983048700,3.775048583984375,0.9521920084953308,-0.5923110246658325,-0.7369459867477417
1722585146993041700,3.785041748046875,0.9521920084953308,-0.5923110246658325,-0.7369459867477417
1722585147003032300,3.7950322265625,2.9206299781799316,-0.6244019865989685,0.6300430297851562
1722585147013023000,3.80502294921875,2.9206299781799316,-0.6244019865989685,0.6300430297851562
1722585147023010000,3.815010009765625,-1.4094040393829346,0.44234898686408997,-0.10848599672317505
1722585147032996900,3.824996826171875,-1.4094040393829346,0.44234898686408997,-0.10848599672317505
1722585147042976000,3.83497607421875,0.8034219741821289,-0.8640390038490295,-1.410498023033142
1722585147052955400,3.844955322265625,0.8034219741821289,-0.8640390038490295,-1.410498023033142
1722585147062943000,3.85494287109375,0.22032299637794495,0.630944013595581,1.120434045791626
1722585147072930800,3.864930908203125,0.22032299637794495,0.630944013595581,1.120434045791626
1722585147082920700,3.874920654296875,0.026302000507712364,-1.2286080121994019,-0.3455449938774109
1722585147092910600,3.88491064453125,0.026302000507712364,-1.2286080121994019,-0.3455449938774109
1722585147102902500,3.894902587890625,-0.344417005777359,0.6772779822349548,-0.5620830059051514
1722585147112894500,3.90489453125,-0.344417005777359,0.6772779822349548,-0.5620830059051514
1722585147122882300,3.91488232421875,0.6412310004234314,0.21674799919128418,1.4765679836273193
1722585147132870100,3.9248701171875,0.6412310004234314,0.21674799919128418,1.4765679836273193
1722585147142859000,3.93485888671875,0.6182330250740051,0.7868880033493042,1.5307810306549072
1722585147152848000,3.944847900390625,0.6182330250740051,0.7868880033493042,1.5307810306549072
1722585147162837200,3.954837158203125,0.4455080032348633,1.570896029472351,-0.38416799902915955
1722585147172827000,3.964826904296875,0.4455080032348633,1.570896029472351,-0.38416799902915955
1722585147182816800,3.974816650390625,-1.655243992805481,0.3164060115814209,0.03819999843835831
1722585147192806700,3.984806640625,-1.655243992805481,0.3164060115814209,0.03819999843835831
1722585147202794000,3.9947939453125,0.9502099752426147,-1.4189820289611816,-0.0886709988117218
1722585147212781300,4.00478125,0.9502099752426147,-1.4189820289611816,-0.0886709988117218
1722585147222767900,4.014767822265625,-0.7659649848937988,-0.40171098709106445,-0.7554180026054382
1722585147232754400,4.02475439453125,-0.7659649848937988,-0.40171098709106445,-0.7554180026054382
1722585147242745600,4.03474560546875,0.657118022441864,-0.5541359782218933,-1.3915430307388306
1722585147252736500,4.044736572265625,0.657118022441864,-0.5541359782218933,-1.3915430307388306
1722585147262727700,4.054727783203125,0.8055999875068665,1.488476037979126,0.8090220093727112
1722585147272718600,4.064718505859375,0.8055999875068665,1.488476037979126,0.8090220093727112
1722585147282700500,4.074700439453125,-2.398608922958374,-0.7924370169639587,0.4566119909286499
1722585147292682800,4.084682861328125,-2.398608922958374,-0.7924370169639587,0.4566119909286499
1722585147302674400,4.09467431640625,1.5395790338516235,0.2885130047798157,-0.06386099755764008
1722585147312666000,4.104666015625,1.5395790338516235,0.2885130047798157,-0.06386099755764008
1722585147322646300,4.114646240234375,-1.1246689558029175,-2.1400680541992188,-0.744379997253418
1722585147332626400,4.12462646484375,-1.1246689558029175,-2.1400680541992188,-0.744379997253418
1722585147342618400,4.134618408203125,-0.18454299867153168,-0.11258900165557861,-0.48388099670410156
1722585147352610300,4.1446103515625,-0.18454299867153168,-0.11258900165557861,-0.48388099670410156
1722585147362587400,4.15458740234375,0.7850189805030823,2.944469928741455,0.9168789982795715
1722585147372564200,4.164564208984375,0.7850189805030823,2.944469928741455,0.9168789982795715
1722585147382553900,4.174553955078125,-0.5223469734191895,-0.20005600154399872,-0.11092499643564224
1722585147392543500,4.18454345703125,-0.5223469734191895,-0.20005600154399872,-0.11092499643564224
1722585147402535200,4.19453515625,-0.43603500723838806,-1.7882449626922607,-0.18752600252628326
1722585147412527000,4.204527099609375,-0.43603500723838806,-1.7882449626922607,-0.18752600252628326
1722585147422516700,4.214516845703125,-0.6546990275382996,-1.0049619674682617,-0.5065510272979736
1722585147432506000,4.224506103515625,-0.6546990275382996,-1.0049619674682617,-0.5065510272979736
1722585147442494500,4.234494384765625,-0.3221920132637024,0.864471971988678,0.21525299549102783
1722585147452482800,4.24448291015625,-0.3221920132637024,0.864471971988678,0.21525299549102783
1722585147462473000,4.254472900390625,-0.07062999904155731,-0.3170669972896576,-0.15936599671840668
1722585147472463400,4.26446337890625,-0.07062999904155731,-0.3170669972896576,-0.15936599671840668
1722585147482454000,4.2744541015625,0.09454400092363358,-1.9677619934082031,-1.153620958328247
1722585147492444700,4.284444580078125,0.09454400092363358,-1.9677619934082031,-1.153620958328247
1722585147502433000,4.29443310546875,0.003298999974504113,1.2485480308532715,0.4523389935493469
1722585147512421000,4.304421142578125,0.003298999974504113,1.2485480308532715,0.4523389935493469
1722585147522412000,4.314412109375,-0.3027479946613312,0.46631500124931335,0.08927299827337265
1722585147532403000,4.32440283203125,-0.3027479946613312,0.46631500124931335,0.08927299827337265
1722585147542393000,4.33439306640625,3.048311948776245,-0.39348798990249634,0.10452699661254883
1722585147552383200,4.34438330078125,3.048311948776245,-0.39348798990249634,0.10452699661254883
1722585147562363600,4.35436376953125,-1.398476004600525,-0.2894980013370514,0.11235799640417099
1722585147572344000,4.364343994140625,-1.398476004600525,-0.2894980013370514,0.11235799640417099
1722585147582334700,4.374334716796875,-0.8701609969139099,1.6043479442596436,0.9584670066833496
1722585147592325400,4.384325439453125,-0.8701609969139099,1.6043479442596436,0.9584670066833496
1722585147602304300,4.39430419921875,2.0859649181365967,0.986998975276947,0.5512490272521973
1722585147612283400,4.404283447265625,2.0859649181365967,0.986998975276947,0.5512490272521973
1722585147622263000,4.414262939453125,-0.9777719974517822,-1.4421900510787964,-1.6950759887695312
1722585147632242700,4.42424267578125,-0.9777719974517822,-1.4421900510787964,-1.6950759887695312
1722585147642230300,4.434230224609375,-1.376796007156372,1.7893849611282349,0.405023992061615
1722585147652217900,4.4442177734375,-1.376796007156372,1.7893849611282349,0.405023992061615
1722585147662210600,4.45421044921875,1.2334320545196533,-0.11337500065565109,0.07604099810123444
1722585147672203300,4.464203369140625,1.2334320545196533,-0.11337500065565109,0.07604099810123444
1722585147682184000,4.474183837890625,-1.0007679462432861,-1.6986019611358643,-0.09289299696683884
1722585147692164600,4.48416455078125,-1.0007679462432861,-1.6986019611358643,-0.09289299696683884
1722585147702144300,4.494144287109375,0.03976200148463249,0.5664470195770264,0.15884800255298615
1722585147712124200,4.504124267578125,0.03976200148463249,0.5664470195770264,0.15884800255298615
1722585147722118400,4.514118408203125,2.3214290142059326,2.768372058868408,0.3264630138874054
1722585147732112600,4.524112548828125,2.3214290142059326,2.768372058868408,0.3264630138874054
1722585147742109400,4.534109375,0.365011990070343,-1.239001989364624,0.022432999685406685
1722585147752106200,4.544106201171875,0.365011990070343,-1.239001989364624,0.022432999685406685
1722585147762093000,4.554093017578125,-0.5245239734649658,-1.7005130052566528,-0.2917799949645996
1722585147772080000,4.564080078125,-0.5245239734649658,-1.7005130052566528,-0.2917799949645996
1722585147782060300,4.574060302734375,0.20080499351024628,-1.362738013267517,-0.3771199882030487
1722585147792040200,4.584040283203125,0.20080499351024628,-1.362738013267517,-0.3771199882030487
1722585147802007600,4.594007568359375,0.22442099452018738,-1.7304810285568237,-1.1543240547180176
1722585147811975000,4.603974853515625,0.22442099452018738,-1.7304810285568237,-1.1543240547180176
1722585147821953500,4.61395361328125,-2.334167957305908,1.5213680267333984,0.7981719970703125
1722585147831932000,4.623931884765625,-2.334167957305908,1.5213680267333984,0.7981719970703125
1722585147841924000,4.633924072265625,-0.91531902551651,0.40912699699401855,-0.4301539957523346
1722585147851916000,4.643916015625,-0.91531902551651,0.40912699699401855,-0.4301539957523346
1722585147861894000,4.653893798828125,0.6187400221824646,0.22640900313854218,-0.8550770282745361
1722585147871871500,4.66387158203125,0.6187400221824646,0.22640900313854218,-0.8550770282745361
1722585147881865500,4.673865478515625,-0.9775919914245605,1.220559000968933,0.2897639870643616
1722585147891859200,4.683859130859375,-0.9775919914245605,1.220559000968933,0.2897639870643616
1722585147901844000,4.693843994140625,-0.4175330102443695,1.1712850332260132,0.08034399896860123
1722585147911828500,4.703828369140625,-0.4175330102443695,1.1712850332260132,0.08034399896860123
1722585147921823700,4.71382373046875,1.2809879779815674,1.2767800092697144,1.245082974433899
1722585147931818800,4.72381884765625,1.2809879779815674,1.2767800092697144,1.245082974433899
1722585147941813800,4.733813720703125,1.9729770421981812,2.1862170696258545,0.965723991394043
1722585147951809000,4.74380908203125,1.9729770421981812,2.1862170696258545,0.965723991394043
1722585147961804000,4.753803955078125,-0.8989319801330566,0.13109800219535828,0.6282870173454285
1722585147971799000,4.763799072265625,-0.8989319801330566,0.13109800219535828,0.6282870173454285
1722585147981788700,4.77378857421875,1.4672750234603882,1.934928059577942,0.3344860076904297
1722585147991778000,4.783778076171875,1.4672750234603882,1.934928059577942,0.3344860076904297
1722585148001775000,4.793775146484375,-0.4030439853668213,-1.211243987083435,0.025408999994397163
1722585148011772200,4.803772216796875,-0.4030439853668213,-1.211243987083435,0.025408999994397163
1722585148021757200,4.813757080078125,1.0670119524002075,-0.7169240117073059,-1.3633220195770264
1722585148031742500,4.823742431640625,1.0670119524002075,-0.7169240117073059,-1.3633220195770264
1722585148041733400,4.8337333984375,-0.040015000849962234,-2.867948055267334,-1.4145489931106567
1722585148051724500,4.843724609375,-0.040015000849962234,-2.867948055267334,-1.4145489931106567
1722585148061704200,4.8537041015625,-1.0406500101089478,-2.5273590087890625,0.05290000140666962
1722585148071683800,4.863683837890625,-1.0406500101089478,-2.5273590087890625,0.05290000140666962
1722585148081647900,4.87364794921875,0.28332701325416565,-2.738348960876465,-1.5279419422149658
1722585148091612000,4.88361181640625,0.28332701325416565,-2.738348960876465,-1.5279419422149658
1722585148101603600,4.893603515625,-0.983476996421814,-2.62296199798584,-3.418241024017334
1722585148111595300,4.90359521484375,-0.983476996421814,-2.62296199798584,-3.418241024017334
1722585148121575200,4.9135751953125,-2.4670469760894775,-1.1902379989624023,-1.1349610090255737
1722585148131555000,4.92355517578125,-2.4670469760894775,-1.1902379989624023,-1.1349610090255737
1722585148141546500,4.93354638671875,-0.47043299674987793,-2.368109941482544,0.3960599899291992
1722585148151537700,4.94353759765625,-0.47043299674987793,-2.368109941482544,0.3960599899291992
1722585148161528600,4.953528564453125,-0.490200012922287,-1.0360000133514404,-0.4492340087890625
1722585148171519200,4.963519287109375,-0.490200012922287,-1.0360000133514404,-0.4492340087890625
1722585148181498600,4.97349853515625,-2.134666919708252,-2.0690228939056396,0.41470301151275635
1722585148191478000,4.98347802734375,-2.134666919708252,-2.0690228939056396,0.41470301151275635
1722585148201469000,4.993468994140625,-1.077949047088623,-0.6755059957504272,0.6134099960327148
1722585148211460000,5.003460205078125,-1.077949047088623,-0.6755059957504272,0.6134099960327148
1722585148221439700,5.013439697265625,0.7558670043945312,-3.4298079013824463,-0.16321800649166107
1722585148231419600,5.023419677734375,0.7558670043945312,-3.4298079013824463,-0.16321800649166107
1722585148241386500,5.033386474609375,-0.48843300342559814,-2.1076860427856445,-0.7572010159492493
1722585148251353000,5.04335302734375,-0.48843300342559814,-2.1076860427856445,-0.7572010159492493
1722585148261335600,5.05333544921875,0.20537500083446503,-2.327954053878784,-0.23180000483989716
1722585148271318000,5.063318115234375,0.20537500083446503,-2.327954053878784,-0.23180000483989716
1722585148281309000,5.073308837890625,0.00010699999984353781,-1.677724003791809,0.8249970078468323
1722585148291299800,5.0832998046875,0.00010699999984353781,-1.677724003791809,0.8249970078468323
1722585148301290000,5.0932900390625,1.0101310014724731,-2.721040964126587,-0.14691400527954102
1722585148311280400,5.1032802734375,1.0101310014724731,-2.721040964126587,-0.14691400527954102
1722585148321271600,5.113271484375,-2.306226968765259,-1.7336020469665527,-1.3412710428237915
1722585148331262500,5.123262451171875,-2.306226968765259,-1.7336020469665527,-1.3412710428237915
1722585148341250300,5.133250244140625,-1.5169340372085571,-1.6349719762802124,-0.32888299226760864
1722585148351238400,5.14323828125,-1.5169340372085571,-1.6349719762802124,-0.32888299226760864
1722585148361227500,5.1532275390625,-0.545553982257843,-2.934691905975342,0.4440689980983734
1722585148371216400,5.16321630859375,-0.545553982257843,-2.934691905975342,0.4440689980983734
1722585148381195500,5.173195556640625,-0.4905549883842468,-1.8328020572662354,0.2844829857349396
1722585148391174700,5.183174560546875,-0.4905549883842468,-1.8328020572662354,0.2844829857349396
1722585148401164000,5.1931640625,-2.8263978958129883,-1.9216949939727783,-0.43464699387550354
1722585148411153400,5.2031533203125,-2.8263978958129883,-1.9216949939727783,-0.43464699387550354
1722585148421142800,5.213142822265625,-0.8831040263175964,-0.6124969720840454,0.01907699927687645
1722585148431132400,5.22313232421875,-0.8831040263175964,-0.6124969720840454,0.01907699927687645
1722585148441120800,5.233120849609375,0.7449820041656494,-0.15306000411510468,0.8630470037460327
1722585148451109400,5.243109375,0.7449820041656494,-0.15306000411510468,0.8630470037460327
1722585148461088500,5.253088623046875,-0.4897800087928772,1.0134730339050293,1.7089149951934814
1722585148471067600,5.263067626953125,-0.4897800087928772,1.0134730339050293,1.7089149951934814
1722585148481057500,5.2730576171875,-0.7301120162010193,2.0941851139068604,0.9084010124206543
1722585148491047400,5.28304736328125,-0.7301120162010193,2.0941851139068604,0.9084010124206543
1722585148501037300,5.293037353515625,1.8704949617385864,1.8343499898910522,0.3731139898300171
1722585148511027000,5.30302685546875,1.8704949617385864,1.8343499898910522,0.3731139898300171
1722585148521016600,5.3130166015625,-0.19248799979686737,2.2791049480438232,1.4084140062332153
1722585148531006200,5.323006103515625,-0.19248799979686737,2.2791049480438232,1.4084140062332153
1722585148540987000,5.33298681640625,-1.065214991569519,0.8534780144691467,-0.12101099640130997
1722585148550967600,5.342967529296875,-1.065214991569519,0.8534780144691467,-0.12101099640130997
1722585148560955100,5.352955078125,-0.2164829969406128,-2.084115982055664,-1.7782050371170044
1722585148570942700,5.362942626953125,-0.2164829969406128,-2.084115982055664,-1.7782050371170044
1722585148580912400,5.372912353515625,-0.71766597032547,-1.3211760520935059,-0.45439401268959045
1722585148590882000,5.382882080078125,-0.71766597032547,-1.3211760520935059,-0.45439401268959045
1722585148600873200,5.392873291015625,0.14532999694347382,-2.803169012069702,0.12195099890232086
1722585148610864400,5.402864501953125,0.14532999694347382,-2.803169012069702,0.12195099890232086
1722585148620846000,5.41284619140625,-0.8029800057411194,-1.6298730373382568,-0.7781310081481934
1722585148630828000,5.422828125,-0.8029800057411194,-1.6298730373382568,-0.7781310081481934
1722585148640812000,5.43281201171875,-0.12038300186395645,0.2525309920310974,-0.41444501280784607
1722585148650795800,5.442795654296875,-0.12038300186395645,0.2525309920310974,-0.41444501280784607
1722585148660779000,5.452779052734375,1.1889660358428955,0.3428489863872528,0.19917699694633484
1722585148670762000,5.462761962890625,1.1889660358428955,0.3428489863872528,0.19917699694633484
1722585148680756000,5.472755859375,0.2978360056877136,1.9239089488983154,1.0583889484405518
1722585148690750000,5.48275,0.2978360056877136,1.9239089488983154,1.0583889484405518
1722585148700731600,5.492731689453125,1.9025959968566895,3.0500049591064453,0.8590959906578064
1722585148710713900,5.5027138671875,1.9025959968566895,3.0500049591064453,0.8590959906578064
1722585148720704300,5.512704345703125,-0.46007999777793884,1.4077450037002563,0.8146299719810486
1722585148730694700,5.522694580078125,-0.46007999777793884,1.4077450037002563,0.8146299719810486
1722585148740685300,5.532685302734375,-2.3752260208129883,0.053617000579833984,-0.7785019874572754
1722585148750676000,5.542676025390625,-2.3752260208129883,0.053617000579833984,-0.7785019874572754
1722585148760656100,5.55265625,0.8827400207519531,-1.531770944595337,-1.667490005493164
1722585148770636300,5.56263623046875,0.8827400207519531,-1.531770944595337,-1.667490005493164
1722585148780629200,5.572629150390625,-1.1079610586166382,-2.4227209091186523,-0.9484530091285706
1722585148790622200,5.582622314453125,-1.1079610586166382,-2.4227209091186523,-0.9484530091285706
1722585148800612000,5.592612060546875,-0.1509999930858612,-1.6445389986038208,-0.4257749915122986
1722585148810602000,5.60260205078125,-0.1509999930858612,-1.6445389986038208,-0.4257749915122986
1722585148820592000,5.612592041015625,-0.6894320249557495,1.6383830308914185,0.9484249949455261
1722585148830582000,5.62258203125,-0.6894320249557495,1.6383830308914185,0.9484249949455261
1722585148840568600,5.632568603515625,2.0044119358062744,2.8767030239105225,1.533499002456665
1722585148850555100,5.64255517578125,2.0044119358062744,2.8767030239105225,1.533499002456665
1722585148860531000,5.652531005859375,0.9644219875335693,1.4685349464416504,0.4677489995956421
1722585148870507000,5.662507080078125,0.9644219875335693,1.4685349464416504,0.4677489995956421
1722585148880495900,5.672495849609375,-1.9294530153274536,0.5285850167274475,1.0322070121765137
1722585148890485000,5.682485107421875,-1.9294530153274536,0.5285850167274475,1.0322070121765137
1722585148900461800,5.6924619140625,-1.4952330589294434,-2.537476062774658,-1.2959280014038086
1722585148910439000,5.70243896484375,-1.4952330589294434,-2.537476062774658,-1.2959280014038086
1722585148920423400,5.71242333984375,1.2872669696807861,-2.8633289337158203,-1.1166000366210938
1722585148930408200,5.722408203125,1.2872669696807861,-2.8633289337158203,-1.1166000366210938
1722585148940393000,5.73239306640625,-1.697849988937378,-2.2345259189605713,-0.03460400179028511
1722585148950378000,5.7423779296875,-1.697849988937378,-2.2345259189605713,-0.03460400179028511
1722585148960364500,5.752364501953125,-1.4427119493484497,2.1384220123291016,-0.01699800044298172
1722585148970351000,5.76235107421875,-1.4427119493484497,2.1384220123291016,-0.01699800044298172
1722585148980337700,5.772337646484375,1.7293829917907715,2.825438976287842,0.6181250214576721
1722585148990324200,5.78232421875,1.7293829917907715,2.825438976287842,0.6181250214576721
1722585149000310500,5.792310546875,1.897150993347168,1.2552549839019775,0.4962809979915619
1722585149010297000,5.802297119140625,1.897150993347168,1.2552549839019775,0.4962809979915619
1722585149020280800,5.81228076171875,-1.7283899784088135,-0.9306859970092773,0.3677619993686676
1722585149030264600,5.8222646484375,-1.7283899784088135,-0.9306859970092773,0.3677619993686676
1722585149040252400,5.83225244140625,-4.1423821449279785,-1.9998459815979004,-1.755236029624939
1722585149050240300,5.842240234375,-4.1423821449279785,-1.9998459815979004,-1.755236029624939
1722585149060206000,5.8522060546875,1.9869600534439087,-1.9835530519485474,-1.3411719799041748
1722585149070172200,5.862172119140625,1.9869600534439087,-1.9835530519485474,-1.3411719799041748
1722585149080160800,5.872160888671875,3.793246030807495,1.3505899906158447,1.4786460399627686
1722585149090149000,5.882149169921875,3.793246030807495,1.3505899906158447,1.4786460399627686
1722585149100127200,5.892127197265625,-3.7498619556427,2.0633859634399414,-0.36869001388549805
1722585149110105300,5.902105224609375,-3.7498619556427,2.0633859634399414,-0.36869001388549805
1722585149120093200,5.91209326171875,3.035003900527954,1.18641996383667,-1.259511947631836
1722585149130081000,5.9220810546875,3.035003900527954,1.18641996383667,-1.259511947631836
1722585149140067800,5.93206787109375,0.17301799356937408,-4.22487211227417,-0.2481510043144226
1722585149150055000,5.942054931640625,0.17301799356937408,-4.22487211227417,-0.2481510043144226
1722585149160047000,5.952047119140625,0.7993490099906921,-1.7875759601593018,0.5769910216331482
1722585149170039600,5.96203955078125,0.7993490099906921,-1.7875759601593018,0.5769910216331482
1722585149180020700,5.972020751953125,0.21757300198078156,3.2921791076660156,0.9350399971008301
1722585149190002200,5.982002197265625,0.21757300198078156,3.2921791076660156,0.9350399971008301
1722585149199991800,5.99199169921875,-0.376459002494812,2.96537709236145,1.0561250448226929
1722585149209981400,6.0019814453125,-0.376459002494812,2.96537709236145,1.0561250448226929
1722585149219972600,6.01197265625,2.7645509243011475,-0.4582209885120392,-0.977528989315033
1722585149229964000,6.021964111328125,2.7645509243011475,-0.4582209885120392,-0.977528989315033
1722585149239950800,6.031950927734375,-1.4773609638214111,-2.4448459148406982,-0.5980629920959473
1722585149249937400,6.0419375,-1.4773609638214111,-2.4448459148406982,-0.5980629920959473
1722585149259920600,6.051920654296875,-1.7112020254135132,0.14632800221443176,0.39376598596572876
1722585149269903600,6.061903564453125,-1.7112020254135132,0.14632800221443176,0.39376598596572876
1722585149279892500,6.071892578125,1.9568380117416382,3.0235049724578857,1.4991710186004639
1722585149289881000,6.081881103515625,1.9568380117416382,3.0235049724578857,1.4991710186004639
1722585149299870000,6.091869873046875,0.6735569834709167,1.8989020586013794,1.0666680335998535
1722585149309858600,6.101858642578125,0.6735569834709167,1.8989020586013794,1.0666680335998535
1722585149319852300,6.111852294921875,-4.311017990112305,-1.8803290128707886,-1.508381962776184
1722585149329846000,6.121845947265625,-4.311017990112305,-1.8803290128707886,-1.508381962776184
1722585149339843600,6.131843505859375,1.2394299507141113,-2.2183010578155518,-1.4216829538345337
1722585149349841000,6.1418408203125,1.2394299507141113,-2.2183010578155518,-1.4216829538345337
1722585149359831000,6.1518310546875,3.4486188888549805,2.6373579502105713,1.6089459657669067
1722585149369821200,6.1618212890625,3.4486188888549805,2.6373579502105713,1.6089459657669067
1722585149379814000,6.17181396484375,-2.0241739749908447,1.8412890434265137,-0.20827700197696686
1722585149389806800,6.181806884765625,-2.0241739749908447,1.8412890434265137,-0.20827700197696686
1722585149399799300,6.19179931640625,-1.2871639728546143,-2.0257279872894287,-3.047300100326538
1722585149409791700,6.201791748046875,-1.2871639728546143,-2.0257279872894287,-3.047300100326538
1722585149419776500,6.211776611328125,2.757098913192749,-3.0366249084472656,-0.8658390045166016
1722585149429761300,6.22176123046875,2.757098913192749,-3.0366249084472656,-0.8658390045166016
1722585149439743500,6.231743408203125,1.98934805393219,2.8306820392608643,2.697877883911133
1722585149449726000,6.241725830078125,1.98934805393219,2.8306820392608643,2.697877883911133
1722585149459707000,6.251706787109375,-1.976099967956543,1.8312280178070068,0.3501349985599518
1722585149469687600,6.2616875,-1.976099967956543,1.8312280178070068,0.3501349985599518
1722585149479676200,6.27167626953125,-1.9210389852523804,-2.040060043334961,-1.6478990316390991
1722585149489664500,6.28166455078125,-1.9210389852523804,-2.040060043334961,-1.6478990316390991
1722585149499642000,6.29164208984375,2.497562885284424,-1.5458699464797974,-0.18218599259853363
1722585149509619500,6.301619384765625,2.497562885284424,-1.5458699464797974,-0.18218599259853363
1722585149519610400,6.3116103515625,3.391479969024658,5.112112045288086,2.654141902923584
1722585149529601000,6.32160107421875,3.391479969024658,5.112112045288086,2.654141902923584
1722585149539581200,6.331581298828125,-5.295350074768066,1.1530879735946655,-0.11263299733400345
1722585149549561300,6.341561279296875,-5.295350074768066,1.1530879735946655,-0.11263299733400345
1722585149559550500,6.351550537109375,7.388279914855957,-1.2777719497680664,-0.2234400063753128
1722585149569539300,6.361539306640625,7.388279914855957,-1.2777719497680664,-0.2234400063753128
1722585149579525600,6.371525634765625,5.3384809494018555,0.5693339705467224,1.9912129640579224
1722585149589512000,6.381511962890625,5.3384809494018555,0.5693339705467224,1.9912129640579224
1722585149599492600,6.39149267578125,-1.875033974647522,3.8119499683380127,1.7538690567016602
1722585149609473500,6.4014736328125,-1.875033974647522,3.8119499683380127,1.7538690567016602
1722585149619460600,6.411460693359375,0.1446480005979538,-0.34956100583076477,-2.0619029998779297
1722585149629448000,6.421447998046875,0.1446480005979538,-0.34956100583076477,-2.0619029998779297
1722585149639437300,6.431437255859375,0.21450699865818024,-2.276442050933838,-1.4961849451065063
1722585149649427000,6.441427001953125,0.21450699865818024,-2.276442050933838,-1.4961849451065063
1722585149659418400,6.45141845703125,-1.506047010421753,3.199273109436035,0.7863050103187561
1722585149669409500,6.461409423828125,-1.506047010421753,3.199273109436035,0.7863050103187561
1722585149679396900,6.47139697265625,-2.635132074356079,0.9049609899520874,-0.30602699518203735
1722585149689384000,6.481384033203125,-2.635132074356079,0.9049609899520874,-0.30602699518203735
1722585149699359200,6.491359130859375,-0.25598299503326416,-3.3341128826141357,-0.955407977104187
1722585149709334500,6.50133447265625,-0.25598299503326416,-3.3341128826141357,-0.955407977104187
1722585149719325200,6.5113251953125,-1.6763689517974854,0.5276389718055725,0.5276640057563782
1722585149729315600,6.521315673828125,-1.6763689517974854,0.5276389718055725,0.5276640057563782
1722585149739301400,6.53130126953125,-0.8169019818305969,3.611198902130127,1.9593039751052856
1722585149749287000,6.541286865234375,-0.8169019818305969,3.611198902130127,1.9593039751052856
1722585149759262700,6.5512626953125,0.36965399980545044,-1.088096022605896,-0.35044899582862854
1722585149769238500,6.561238525390625,0.36965399980545044,-1.088096022605896,-0.35044899582862854
1722585149779227000,6.571226806640625,1.1886130571365356,-0.4277929961681366,-0.4663180112838745
1722585149789215000,6.581215087890625,1.1886130571365356,-0.4277929961681366,-0.4663180112838745
1722585149799202000,6.5912021484375,-0.3191390037536621,4.096181869506836,1.4434200525283813
1722585149809189000,6.601189208984375,-0.3191390037536621,4.096181869506836,1.4434200525283813
1722585149819181300,6.611181396484375,-0.8462979793548584,-0.4661160111427307,0.4679090082645416
1722585149829173500,6.621173583984375,-0.8462979793548584,-0.4661160111427307,0.4679090082645416
1722585149839164200,6.6311640625,3.1692440509796143,-3.412834882736206,-0.1691029965877533
1722585149849154600,6.641154541015625,3.1692440509796143,-3.412834882736206,-0.1691029965877533
1722585149859145000,6.65114501953125,-2.827824115753174,3.612921953201294,0.3926289975643158
1722585149869135000,6.661135009765625,-2.827824115753174,3.612921953201294,0.3926289975643158
1722585149879123200,6.671123291015625,-5.106399059295654,0.13193699717521667,-1.163633942604065
1722585149889111600,6.681111572265625,-5.106399059295654,0.13193699717521667,-1.163633942604065
1722585149899095600,6.691095458984375,-0.2314399927854538,-4.378461837768555,1.0121480226516724
1722585149909079800,6.701079833984375,-0.2314399927854538,-4.378461837768555,1.0121480226516724
1722585149919068000,6.71106787109375,3.2631900310516357,3.2877049446105957,1.517920970916748
1722585149929056000,6.721055908203125,3.2631900310516357,3.2877049446105957,1.517920970916748
1722585149939046400,6.73104638671875,0.19608700275421143,-1.0283859968185425,-2.10309100151062
1722585149949036800,6.741036865234375,0.19608700275421143,-1.0283859968185425,-2.10309100151062
1722585149959012000,6.75101220703125,-2.6705079078674316,-2.4874908924102783,-1.0430439710617065
1722585149968987400,6.7609873046875,-2.6705079078674316,-2.4874908924102783,-1.0430439710617065
1722585149978973200,6.77097314453125,-1.0392290353775024,3.9563050270080566,1.8007160425186157
1722585149988959000,6.780958984375,-1.0392290353775024,3.9563050270080566,1.8007160425186157
1722585149998945300,6.7909453125,0.4239540100097656,-2.079900026321411,-0.5489420294761658
1722585150008931600,6.800931640625,0.4239540100097656,-2.079900026321411,-0.5489420294761658
1722585150018921200,6.810921142578125,1.0233110189437866,-0.023166000843048096,-1.7381349802017212
1722585150028910600,6.82091064453125,1.0233110189437866,-0.023166000843048096,-1.7381349802017212
1722585150038895400,6.830895263671875,-0.2216459959745407,3.3055291175842285,-0.890749990940094
1722585150048880000,6.840880126953125,-0.2216459959745407,3.3055291175842285,-0.890749990940094
1722585150058867700,6.85086767578125,1.506669044494629,-1.6161309480667114,0.22943300008773804
1722585150068855300,6.860855224609375,1.506669044494629,-1.6161309480667114,0.22943300008773804
1722585150078836000,6.8708359375,4.280014991760254,-0.25058498978614807,0.38413000106811523
1722585150088816400,6.88081640625,4.280014991760254,-0.25058498978614807,0.38413000106811523
1722585150098804500,6.890804443359375,-0.6038309931755066,3.798804998397827,0.2443300038576126
1722585150108792600,6.90079248046875,-0.6038309931755066,3.798804998397827,0.2443300038576126
1722585150118780200,6.9107802734375,-2.9971048831939697,-2.148777961730957,-0.3755730092525482
1722585150128767700,6.920767822265625,-2.9971048831939697,-2.148777961730957,-0.3755730092525482
1722585150138756000,6.930756103515625,1.271793007850647,2.3570621013641357,1.5573949813842773
1722585150148744400,6.940744384765625,1.271793007850647,2.3570621013641357,1.5573949813842773
1722585150158732000,6.95073193359375,-0.6361560225486755,0.016145000234246254,-1.0520360469818115
1722585150168719400,6.96071923828125,-0.6361560225486755,0.016145000234246254,-1.0520360469818115
1722585150178705400,6.970705322265625,-2.8392720222473145,-2.566183090209961,-2.087151050567627
1722585150188691200,6.980691162109375,-2.8392720222473145,-2.566183090209961,-2.087151050567627
1722585150198675500,6.990675537109375,1.3536429405212402,3.531646966934204,0.9215059876441956
1722585150208659500,7.000659423828125,1.3536429405212402,3.531646966934204,0.9215059876441956
1722585150218646800,7.010646728515625,0.016777999699115753,-3.7262790203094482,-0.78889399766922
1722585150228634000,7.020634033203125,0.016777999699115753,-3.7262790203094482,-0.78889399766922
1722585150238621200,7.03062109375,0.020965000614523888,-0.20035800337791443,0.7543190121650696
1722585150248608000,7.04060791015625,0.020965000614523888,-0.20035800337791443,0.7543190121650696
1722585150258591700,7.050591796875,-2.1583878993988037,1.2093219757080078,-0.7291120290756226
1722585150268575500,7.060575439453125,-2.1583878993988037,1.2093219757080078,-0.7291120290756226
1722585150278566100,7.070566162109375,0.8955309987068176,-4.591893196105957,-2.343540906906128
1722585150288556500,7.080556640625,0.8955309987068176,-4.591893196105957,-2.343540906906128
1722585150298544400,7.09054443359375,-2.4705770015716553,2.84985089302063,1.059501051902771
1722585150308532200,7.1005322265625,-2.4705770015716553,2.84985089302063,1.059501051902771
1722585150318508000,7.110508056640625,-2.4069149494171143,-0.7940070033073425,-0.6059550046920776
1722585150328483800,7.12048388671875,-2.4069149494171143,-0.7940070033073425,-0.6059550046920776
1722585150338478300,7.130478271484375,3.048206090927124,-1.6111969947814941,-0.020414000377058983
1722585150348472600,7.14047265625,3.048206090927124,-1.6111969947814941,-0.020414000377058983
1722585150358461700,7.150461669921875,1.8927069902420044,2.6951711177825928,0.3384220004081726
1722585150368450600,7.160450439453125,1.8927069902420044,2.6951711177825928,0.3384220004081726
1722585150378438700,7.170438720703125,-1.1749210357666016,-1.692553997039795,-1.6548689603805542
1722585150388426500,7.180426513671875,-1.1749210357666016,-1.692553997039795,-1.6548689603805542
1722585150398419200,7.190419189453125,0.1471240073442459,3.999946117401123,2.239192008972168
1722585150408412000,7.200411865234375,0.1471240073442459,3.999946117401123,2.239192008972168
1722585150418398200,7.210398193359375,-0.843375027179718,-1.3415770530700684,-1.1192070245742798
1722585150428384800,7.220384765625,-0.843375027179718,-1.3415770530700684,-1.1192070245742798
1722585150438372000,7.2303720703125,1.154052972793579,0.39621099829673767,-1.1653560400009155
1722585150448359400,7.240359375,1.154052972793579,0.39621099829673767,-1.1653560400009155
1722585150458346000,7.250345947265625,-0.3227440118789673,2.6565349102020264,0.6014339923858643
1722585150468332800,7.260332763671875,-0.3227440118789673,2.6565349102020264,0.6014339923858643
1722585150478319900,7.27031982421875,-1.1226789951324463,-3.8058578968048096,-0.07774099707603455
1722585150488307000,7.280306884765625,-1.1226789951324463,-3.8058578968048096,-0.07774099707603455
1722585150498296300,7.29029638671875,-1.118211030960083,2.6603710651397705,1.5900280475616455
1722585150508285700,7.30028564453125,-1.118211030960083,2.6603710651397705,1.5900280475616455
1722585150518261200,7.31026123046875,-1.0440729856491089,-0.5965319871902466,-1.7480130195617676
1722585150528237000,7.320237060546875,-1.0440729856491089,-0.5965319871902466,-1.7480130195617676
1722585150538226200,7.33022607421875,5.0674729347229,-2.757375955581665,-2.5931670665740967
1722585150548215300,7.34021533203125,5.0674729347229,-2.757375955581665,-2.5931670665740967
1722585150558213400,7.35021337890625,0.6078150272369385,2.7672059535980225,1.9126720428466797
1722585150568211700,7.360211669921875,0.6078150272369385,2.7672059535980225,1.9126720428466797
1722585150578201300,7.370201416015625,-0.8359869718551636,0.6655399799346924,1.9842820167541504
1722585150588191200,7.380191162109375,-0.8359869718551636,0.6655399799346924,1.9842820167541504
1722585150598171000,7.3901708984375,0.29652899503707886,-2.213728904724121,-1.3913660049438477
1722585150608150500,7.400150634765625,0.29652899503707886,-2.213728904724121,-1.3913660049438477
1722585150618128400,7.41012841796875,1.2272969484329224,0.5823280215263367,-0.10853800177574158
1722585150628106200,7.420106201171875,1.2272969484329224,0.5823280215263367,-0.10853800177574158
1722585150638092500,7.430092529296875,-1.3877300024032593,1.9719020128250122,1.7656129598617554
1722585150648079000,7.4400791015625,-1.3877300024032593,1.9719020128250122,1.7656129598617554
1722585150658057000,7.450056884765625,-0.32280901074409485,-0.7915040254592896,-0.3556379973888397
1722585150668035000,7.46003515625,-0.32280901074409485,-0.7915040254592896,-0.3556379973888397
1722585150678028300,7.4700283203125,-0.5098509788513184,-0.7347120046615601,-0.9717730283737183
1722585150688021200,7.480021240234375,-0.5098509788513184,-0.7347120046615601,-0.9717730283737183
1722585150698011000,7.490010986328125,0.5265550017356873,0.03299200162291527,0.0614130012691021
1722585150708000300,7.500000244140625,0.5265550017356873,0.03299200162291527,0.0614130012691021
1722585150717991200,7.5099912109375,-1.5310640335083008,2.1313910484313965,1.4445990324020386
1722585150727982300,7.519982421875,-1.5310640335083008,2.1313910484313965,1.4445990324020386
1722585150737973500,7.529973388671875,-0.10514800250530243,-0.10589099675416946,0.614342987537384
1722585150747964700,7.539964599609375,-0.10514800250530243,-0.10589099675416946,0.614342987537384
1722585150757928000,7.549927978515625,0.5127210021018982,1.505568027496338,0.5695310235023499
1722585150767891200,7.55989111328125,0.5127210021018982,1.505568027496338,0.5695310235023499
1722585150777872400,7.569872314453125,-1.861346960067749,-0.025721000507473946,-0.011985000222921371
1722585150787853600,7.579853515625,-1.861346960067749,-0.025721000507473946,-0.011985000222921371
1722585150797832200,7.589832275390625,-0.375542014837265,0.018786000087857246,-1.2141859531402588
1722585150807810800,7.599810791015625,-0.375542014837265,0.018786000087857246,-1.2141859531402588
1722585150817780500,7.609780517578125,-0.6075959801673889,0.054457999765872955,-2.099276065826416
1722585150827750000,7.61975,-0.6075959801673889,0.054457999765872955,-2.099276065826416
1722585150837742300,7.629742431640625,-0.054822999984025955,0.4713500142097473,0.36035799980163574
1722585150847734800,7.63973486328125,-0.054822999984025955,0.4713500142097473,0.36035799980163574
1722585150857720600,7.649720458984375,-0.7840229868888855,-1.7604329586029053,1.0911259651184082
1722585150867706000,7.6597060546875,-0.7840229868888855,-1.7604329586029053,1.0911259651184082
1722585150877696000,7.669696044921875,0.06622999906539917,2.2038609981536865,-0.3477559983730316
1722585150887686000,7.679685791015625,0.06622999906539917,2.2038609981536865,-0.3477559983730316
1722585150897676000,7.689676025390625,-0.7532489895820618,0.12262699753046036,-1.2960760593414307
1722585150907666200,7.699666259765625,-0.7532489895820618,0.12262699753046036,-1.2960760593414307
1722585150917654800,7.70965478515625,-1.6409209966659546,-0.5423219799995422,0.2659800052642822
1722585150927643100,7.71964306640625,-1.6409209966659546,-0.5423219799995422,0.2659800052642822
1722585150937632500,7.729632568359375,1.780668020248413,0.844871997833252,0.8123630285263062
1722585150947621600,7.73962158203125,1.780668020248413,0.844871997833252,0.8123630285263062
1722585150957608200,7.749608154296875,-0.23204000294208527,-0.7508209943771362,2.1053550243377686
1722585150967594800,7.7595947265625,-0.23204000294208527,-0.7508209943771362,2.1053550243377686
1722585150977572600,7.769572509765625,-2.5521678924560547,-0.6890180110931396,-0.9872699975967407
1722585150987550500,7.779550537109375,-2.5521678924560547,-0.6890180110931396,-0.9872699975967407
1722585150997526000,7.789526123046875,0.388604998588562,-1.0267390012741089,-0.692808985710144
1722585151007501300,7.799501220703125,0.388604998588562,-1.0267390012741089,-0.692808985710144
1722585151017489400,7.809489501953125,3.513184070587158,0.5592129826545715,2.126075029373169
1722585151027477200,7.819477294921875,3.513184070587158,0.5592129826545715,2.126075029373169
1722585151037461200,7.829461181640625,-0.5595340132713318,-1.3521889448165894,-1.224377989768982
1722585151047445200,7.8394453125,-0.5595340132713318,-1.3521889448165894,-1.224377989768982
1722585151057436000,7.849435791015625,-0.8464499711990356,-1.2363619804382324,-3.016432046890259
1722585151067426600,7.859426513671875,-0.8464499711990356,-1.2363619804382324,-3.016432046890259
1722585151077415200,7.869415283203125,-3.5265181064605713,-2.2587060928344727,-0.6374539732933044
1722585151087403800,7.87940380859375,-3.5265181064605713,-2.2587060928344727,-0.6374539732933044
1722585151097391000,7.88939111328125,1.5950429439544678,-1.917801022529602,0.6252149939537048
1722585151107378200,7.899378173828125,1.5950429439544678,-1.917801022529602,0.6252149939537048
1722585151117367000,7.909366943359375,5.789130210876465,-1.4858659505844116,2.929231882095337
1722585151127356000,7.91935595703125,5.789130210876465,-1.4858659505844116,2.929231882095337
1722585151137330700,7.92933056640625,-0.6528120040893555,-4.998036861419678,-3.033236026763916
1722585151147305500,7.939305419921875,-0.6528120040893555,-4.998036861419678,-3.033236026763916
1722585151157291800,7.949291748046875,-4.6762871742248535,-1.2563010454177856,-0.07147999852895737
1722585151167278000,7.959278076171875,-4.6762871742248535,-1.2563010454177856,-0.07147999852895737
1722585151177264400,7.969264404296875,-2.139617919921875,1.125525951385498,-0.7544019818305969
1722585151187251000,7.9792509765625,-2.139617919921875,1.125525951385498,-0.7544019818305969
1722585151197232000,7.989232177734375,2.942934036254883,1.0125559568405151,-0.36566799879074097
1722585151207213600,7.999213623046875,2.942934036254883,1.0125559568405151,-0.36566799879074097
1722585151217191200,8.009191162109374,8.957935333251953,0.9087259769439697,1.0367799997329712
1722585151227168500,8.01916845703125,8.957935333251953,0.9087259769439697,1.0367799997329712
1722585151237160000,8.029159912109375,6.362340927124023,-6.943398952484131,-0.8319209814071655
1722585151247151000,8.039151123046874,6.362340927124023,-6.943398952484131,-0.8319209814071655
1722585151257142800,8.049142822265624,-12.264952659606934,-0.34830400347709656,-1.175549030303955
1722585151267134500,8.059134521484374,-12.264952659606934,-0.34830400347709656,-1.175549030303955
1722585151277125000,8.069125,-11.948246955871582,1.0647770166397095,-2.426168918609619
1722585151287116000,8.079115966796875,-11.948246955871582,1.0647770166397095,-2.426168918609619
1722585151297105200,8.089105224609375,6.41354513168335,1.4433449506759644,0.46929898858070374
1722585151307094300,8.09909423828125,6.41354513168335,1.4433449506759644,0.46929898858070374
1722585151317085400,8.10908544921875,12.073189735412598,3.192831039428711,3.2070651054382324
1722585151327076600,8.11907666015625,12.073189735412598,3.192831039428711,3.2070651054382324
1722585151337071000,8.129071044921876,5.283278942108154,1.2416150569915771,3.9168970584869385
1722585151347065900,8.13906591796875,5.283278942108154,1.2416150569915771,3.9168970584869385
1722585151357030100,8.149030029296876,-4.294785976409912,2.9668829441070557,2.0288050174713135
1722585151366994700,8.15899462890625,-4.294785976409912,2.9668829441070557,2.0288050174713135
1722585151376972000,8.168971923828124,-11.561469078063965,-1.2120059728622437,-1.5771210193634033
1722585151386949600,8.17894970703125,-11.561469078063965,-1.2120059728622437,-1.5771210193634033
1722585151396942000,8.188942138671875,-2.3906829357147217,1.3096669912338257,-1.96035897731781
1722585151406934800,8.198934814453125,-2.3906829357147217,1.3096669912338257,-1.96035897731781
1722585151416923400,8.20892333984375,11.140144348144531,2.6553289890289307,0.026301000267267227
1722585151426911700,8.218911865234375,11.140144348144531,2.6553289890289307,0.026301000267267227
1722585151436902400,8.22890234375,1.3698149919509888,-1.6736960411071777,-2.5371909141540527
1722585151446892800,8.238892822265624,1.3698149919509888,-1.6736960411071777,-2.5371909141540527
1722585151456874200,8.248874267578126,-8.934015274047852,1.5249550342559814,-0.12577399611473083
1722585151466855400,8.25885546875,-8.934015274047852,1.5249550342559814,-0.12577399611473083
1722585151476833800,8.268833740234374,-5.497481822967529,2.250981092453003,1.5608769655227661
1722585151486812200,8.278812255859375,-5.497481822967529,2.250981092453003,1.5608769655227661
1722585151496802000,8.288802001953124,3.8503520488739014,-0.8535550236701965,1.3729020357131958
1722585151506792200,8.298792236328126,3.8503520488739014,-0.8535550236701965,1.3729020357131958
1722585151516783900,8.308783935546876,0.18612200021743774,-0.7517579793930054,1.0305609703063965
1722585151526775600,8.318775634765625,0.18612200021743774,-0.7517579793930054,1.0305609703063965
1722585151536765200,8.32876513671875,-0.43123799562454224,2.228408098220825,0.8812289834022522
1722585151546754600,8.338754638671874,-0.43123799562454224,2.228408098220825,0.8812289834022522
1722585151556745700,8.348745849609376,-12.152128219604492,0.860185980796814,0.8103920221328735
1722585151566736600,8.358736572265625,-12.152128219604492,0.860185980796814,0.8103920221328735
1722585151576728300,8.368728271484375,-4.7588791847229,-3.0446839332580566,-2.4838809967041016
1722585151586720000,8.378719970703125,-4.7588791847229,-3.0446839332580566,-2.4838809967041016
1722585151596696800,8.38869677734375,1.7112129926681519,3.6378889083862305,-1.5458650588989258
1722585151606674000,8.398673828125,1.7112129926681519,3.6378889083862305,-1.5458650588989258
1722585151616638700,8.408638671875,8.23717975616455,-0.22438499331474304,-1.165079951286316
1722585151626603800,8.418603759765626,8.23717975616455,-0.22438499331474304,-1.165079951286316
1722585151636595200,8.42859521484375,-3.481318950653076,-2.597651958465576,0.6250330209732056
1722585151646586400,8.43858642578125,-3.481318950653076,-2.597651958465576,0.6250330209732056
1722585151656577500,8.44857763671875,-9.93757152557373,-1.6736149787902832,-2.3795199394226074
1722585151666568400,8.458568359375,-9.93757152557373,-1.6736149787902832,-2.3795199394226074
1722585151676559000,8.46855908203125,-1.702327013015747,-0.9633539915084839,0.33910301327705383
1722585151686549800,8.4785498046875,-1.702327013015747,-0.9633539915084839,0.33910301327705383
1722585151696538600,8.48853857421875,3.9692680835723877,-1.9440100193023682,3.3906779289245605
1722585151706527700,8.49852783203125,3.9692680835723877,-1.9440100193023682,3.3906779289245605
1722585151716517000,8.50851708984375,11.554760932922363,-0.7075480222702026,2.127816915512085
1722585151726506800,8.5185068359375,11.554760932922363,-0.7075480222702026,2.127816915512085
1722585151736493800,8.528493896484376,1.833367943763733,0.21612299978733063,-0.08995500206947327
1722585151746481000,8.53848095703125,1.833367943763733,0.21612299978733063,-0.08995500206947327
1722585151756469500,8.548469482421876,-11.103330612182617,-1.4409760236740112,-2.4903690814971924
1722585151766457900,8.558457763671875,-11.103330612182617,-1.4409760236740112,-2.4903690814971924
1722585151776449300,8.56844921875,6.226926803588867,-3.8559560775756836,-0.5787339806556702
1722585151786440700,8.578440673828124,6.226926803588867,-3.8559560775756836,-0.5787339806556702
1722585151796407600,8.588407470703125,7.481049060821533,-0.06825900077819824,0.6783649921417236
1722585151806374400,8.59837451171875,7.481049060821533,-0.06825900077819824,0.6783649921417236
1722585151816362800,8.60836279296875,5.322716236114502,0.7815539836883545,0.5909810066223145
1722585151826350800,8.618350830078125,5.322716236114502,0.7815539836883545,0.5909810066223145
1722585151836339200,8.628339111328126,-7.46607780456543,-0.2711069881916046,1.324491024017334
1722585151846327600,8.63832763671875,-7.46607780456543,-0.2711069881916046,1.324491024017334
1722585151856305200,8.64830517578125,7.863565921783447,0.41427499055862427,-1.2817109823226929
1722585151866282800,8.65828271484375,7.863565921783447,0.41427499055862427,-1.2817109823226929
1722585151876249600,8.66824951171875,4.7487897872924805,1.5441839694976807,0.727295994758606
1722585151886216400,8.678216552734375,4.7487897872924805,1.5441839694976807,0.727295994758606
1722585151896208100,8.6882080078125,3.034614086151123,0.7521029710769653,0.8033450245857239
1722585151906200000,8.698199951171874,3.034614086151123,0.7521029710769653,0.8033450245857239
1722585151916190700,8.708190673828126,1.1172080039978027,1.3437139987945557,-0.3282630145549774
1722585151926181000,8.71818115234375,1.1172080039978027,1.3437139987945557,-0.3282630145549774
1722585151936171300,8.728171142578125,-6.207572937011719,2.201606035232544,0.10815799981355667
1722585151946161700,8.73816162109375,-6.207572937011719,2.201606035232544,0.10815799981355667
1722585151956152600,8.748152587890624,0.27467501163482666,2.2380590438842773,0.28444498777389526
1722585151966143500,8.7581435546875,0.27467501163482666,2.2380590438842773,0.28444498777389526
1722585151976130300,8.76813037109375,-0.8909069895744324,0.27223899960517883,0.9150500297546387
1722585151986117400,8.778117431640625,-0.8909069895744324,0.27223899960517883,0.9150500297546387
1722585151996104000,8.78810400390625,-3.1654679775238037,0.19361600279808044,-0.36736801266670227
1722585152006090800,8.7980908203125,-3.1654679775238037,0.19361600279808044,-0.36736801266670227
1722585152016081000,8.808080810546874,-5.7173991203308105,2.2195520401000977,-0.9008240103721619
1722585152026071000,8.818071044921876,-5.7173991203308105,2.2195520401000977,-0.9008240103721619
1722585152036050700,8.82805078125,-2.5853729248046875,-0.576295018196106,-2.40185809135437
1722585152046030000,8.838030029296876,-2.5853729248046875,-0.576295018196106,-2.40185809135437
1722585152056019500,8.84801953125,0.5053139925003052,-1.6550960540771484,-1.5939619541168213
1722585152066008600,8.858008544921875,0.5053139925003052,-1.6550960540771484,-1.5939619541168213
1722585152075999700,8.867999755859374,-2.5816879272460938,0.9668480157852173,1.2137229442596436
1722585152085990700,8.87799072265625,-2.5816879272460938,0.9668480157852173,1.2137229442596436
1722585152095977200,8.887977294921875,-1.6328480243682861,0.8264899849891663,0.27268698811531067
1722585152105964000,8.897964111328125,-1.6328480243682861,0.8264899849891663,0.27268698811531067
1722585152115952000,8.9079521484375,3.0950980186462402,-0.3067359924316406,0.022199999541044235
1722585152125940500,8.9179404296875,3.0950980186462402,-0.3067359924316406,0.022199999541044235
1722585152135918600,8.927918701171874,4.161061763763428,1.211817979812622,1.2908519506454468
1722585152145897000,8.93789697265625,4.161061763763428,1.211817979812622,1.2908519506454468
1722585152155886000,8.947885986328124,-5.14797306060791,-1.9049160480499268,-0.35692501068115234
1722585152165875000,8.957875,-5.14797306060791,-1.9049160480499268,-0.35692501068115234
1722585152175849500,8.967849365234375,-3.8059399127960205,-1.4780490398406982,-1.1843899488449097
1722585152185823700,8.97782373046875,-3.8059399127960205,-1.4780490398406982,-1.1843899488449097
1722585152195812400,8.987812255859374,2.2896549701690674,0.9328979849815369,0.878059983253479
1722585152205801000,8.997801025390626,2.2896549701690674,0.9328979849815369,0.878059983253479
1722585152215788500,9.00778857421875,5.432820796966553,-0.31453999876976013,0.9251009821891785
1722585152225775900,9.01777587890625,5.432820796966553,-0.31453999876976013,0.9251009821891785
1722585152235766500,9.0277666015625,4.399378776550293,-0.06025800108909607,-0.18242399394512177
1722585152245757200,9.037757080078125,4.399378776550293,-0.06025800108909607,-0.18242399394512177
1722585152255744300,9.047744140625,-7.1682000160217285,1.1012029647827148,-1.6450769901275635
1722585152265731000,9.05773095703125,-7.1682000160217285,1.1012029647827148,-1.6450769901275635
1722585152275719000,9.067718994140625,-3.4718921184539795,0.734728991985321,0.5159760117530823
1722585152285707000,9.07770703125,-3.4718921184539795,0.734728991985321,0.5159760117530823
1722585152295694600,9.087694580078125,2.8261940479278564,-1.0480639934539795,-0.2740499973297119
1722585152305682400,9.097682373046876,2.8261940479278564,-1.0480639934539795,-0.2740499973297119
1722585152315670800,9.1076708984375,4.046785831451416,-1.1323909759521484,0.43357598781585693
1722585152325659100,9.1176591796875,4.046785831451416,-1.1323909759521484,0.43357598781585693
1722585152335651300,9.1276513671875,-1.9055900573730469,2.3928050994873047,-0.633961021900177
1722585152345643500,9.1376435546875,-1.9055900573730469,2.3928050994873047,-0.633961021900177
1722585152355612000,9.14761181640625,-0.19550499320030212,-0.05029100179672241,-0.18820199370384216
1722585152365580300,9.157580322265625,-0.19550499320030212,-0.05029100179672241,-0.18820199370384216
1722585152375569000,9.16756884765625,3.769814968109131,1.5441570281982422,3.108509063720703
1722585152385557500,9.1775576171875,3.769814968109131,1.5441570281982422,3.108509063720703
1722585152395544600,9.187544677734374,3.5135560035705566,0.44168001413345337,0.9625939726829529
1722585152405532000,9.197531982421875,3.5135560035705566,0.44168001413345337,0.9625939726829529
1722585152415520500,9.2075205078125,-2.532478094100952,1.0757520198822021,-1.5929739475250244
1722585152425509000,9.217509033203125,-2.532478094100952,1.0757520198822021,-1.5929739475250244
1722585152435496000,9.227495849609374,0.12996500730514526,0.13344800472259521,-0.6012610197067261
1722585152445483000,9.23748291015625,0.12996500730514526,0.13344800472259521,-0.6012610197067261
1722585152455464200,9.247464111328124,2.745687961578369,0.7220680117607117,1.6073909997940063
1722585152465445600,9.257445556640626,2.745687961578369,0.7220680117607117,1.6073909997940063
1722585152475438000,9.26743798828125,3.1895229816436768,1.362347960472107,1.249153971672058
1722585152485430300,9.27743017578125,3.1895229816436768,1.362347960472107,1.249153971672058
1722585152495418400,9.28741845703125,-3.2360999584198,-0.5604950189590454,-1.045578956604004
1722585152505406500,9.297406494140626,-3.2360999584198,-0.5604950189590454,-1.045578956604004
1722585152515394800,9.307394775390625,-4.04642391204834,0.47801798582077026,-1.82601797580719
1722585152525383000,9.3173828125,-4.04642391204834,0.47801798582077026,-1.82601797580719
1722585152535376400,9.32737646484375,-0.07122199982404709,0.3260129988193512,-1.121325969696045
1722585152545369600,9.33736962890625,-0.07122199982404709,0.3260129988193512,-1.121325969696045
1722585152555357200,9.347357177734375,-0.2131749987602234,-0.9084740281105042,-2.3893909454345703
1722585152565344800,9.3573447265625,-0.2131749987602234,-0.9084740281105042,-2.3893909454345703
1722585152575332000,9.36733203125,-3.8570029735565186,-0.5086600184440613,-0.7703840136528015
1722585152585319200,9.377319091796876,-3.8570029735565186,-0.5086600184440613,-0.7703840136528015
1722585152595305000,9.387304931640625,-2.1258819103240967,1.391895055770874,0.4028390049934387
1722585152605290500,9.39729052734375,-2.1258819103240967,1.391895055770874,0.4028390049934387
1722585152615268900,9.407268798828126,2.8175570964813232,0.3405570089817047,-1.322422981262207
1722585152625247200,9.417247314453125,2.8175570964813232,0.3405570089817047,-1.322422981262207
1722585152635234300,9.427234375,-0.6468799710273743,-0.5072529911994934,-2.1816089153289795
1722585152645221600,9.4372216796875,-0.6468799710273743,-0.5072529911994934,-2.1816089153289795
1722585152655188000,9.44718798828125,-0.05795200169086456,-0.15846000611782074,-0.23296000063419342
1722585152665154300,9.457154296875,-0.05795200169086456,-0.15846000611782074,-0.23296000063419342
1722585152675141600,9.4671416015625,1.8464289903640747,0.21044699847698212,2.016313076019287
1722585152685128700,9.477128662109376,1.8464289903640747,0.21044699847698212,2.016313076019287
1722585152695107000,9.487107177734375,0.2518489956855774,-0.07815399765968323,2.365762948989868
1722585152705085200,9.497085205078125,0.2518489956855774,-0.07815399765968323,2.365762948989868
1722585152715065600,9.507065673828125,-0.9034540057182312,0.8216909766197205,2.137173891067505
1722585152725046000,9.5170458984375,-0.9034540057182312,0.8216909766197205,2.137173891067505
1722585152735034400,9.527034423828125,1.4254649877548218,1.4015909433364868,2.392760992050171
1722585152745022700,9.537022705078124,1.4254649877548218,1.4015909433364868,2.392760992050171
1722585152755010600,9.547010498046875,1.2506990432739258,-0.4388140141963959,0.22408300638198853
1722585152764998400,9.556998291015624,1.2506990432739258,-0.4388140141963959,0.22408300638198853
1722585152774975700,9.566975830078125,-0.819346010684967,0.8511030077934265,0.9735530018806458
1722585152784953000,9.576953125,-0.819346010684967,0.8511030077934265,0.9735530018806458
1722585152794940000,9.58693994140625,-0.5243110060691833,-0.29715201258659363,1.583956003189087
1722585152804926700,9.5969267578125,-0.5243110060691833,-0.29715201258659363,1.583956003189087
1722585152814914600,9.60691455078125,0.492000013589859,-1.9376510381698608,0.2991650104522705
1722585152824902700,9.616902587890625,0.492000013589859,-1.9376510381698608,0.2991650104522705
1722585152834879200,9.626879150390625,0.39714598655700684,0.3451850116252899,-0.6117979884147644
1722585152844855600,9.63685546875,0.39714598655700684,0.3451850116252899,-0.6117979884147644
1722585152854833200,9.646833251953124,-0.48337098956108093,0.3582170009613037,-1.0410059690475464
1722585152864811000,9.65681103515625,-0.48337098956108093,0.3582170009613037,-1.0410059690475464
1722585152874791700,9.666791748046874,0.27799299359321594,-1.1311990022659302,-0.03251900151371956
1722585152884772400,9.6767724609375,0.27799299359321594,-1.1311990022659302,-0.03251900151371956
1722585152894760700,9.6867607421875,-0.059564001858234406,-0.4905039966106415,1.2150590419769287
1722585152904749000,9.6967490234375,-0.059564001858234406,-0.4905039966106415,1.2150590419769287
1722585152914737700,9.706737548828125,-0.8605219721794128,0.4771600067615509,0.11996400356292725
1722585152924726300,9.716726318359376,-0.8605219721794128,0.4771600067615509,0.11996400356292725
1722585152934710000,9.7267099609375,-0.8000699877738953,0.004858999978750944,0.11840300261974335
1722585152944693800,9.73669384765625,-0.8000699877738953,0.004858999978750944,0.11840300261974335
1722585152954684700,9.7466845703125,0.7825090289115906,0.7115820050239563,0.8111069798469543
1722585152964675800,9.75667578125,0.7825090289115906,0.7115820050239563,0.8111069798469543
1722585152974663400,9.766663330078124,-2.183305025100708,-0.7965739965438843,-1.7669179439544678
1722585152984651000,9.776651123046875,-2.183305025100708,-0.7965739965438843,-1.7669179439544678
1722585152994642400,9.786642333984375,-0.4094429910182953,-1.2033950090408325,-3.610690116882324
1722585153004633900,9.7966337890625,-0.4094429910182953,-1.2033950090408325,-3.610690116882324
1722585153014624300,9.806624267578124,0.11003900319337845,1.0379379987716675,0.6104990243911743
1722585153024614400,9.816614501953126,0.11003900319337845,1.0379379987716675,0.6104990243911743
1722585153034594300,9.82659423828125,-0.5423269867897034,0.8401880264282227,-0.06711599975824356
1722585153044574500,9.836574462890624,-0.5423269867897034,0.8401880264282227,-0.06711599975824356
1722585153054550500,9.846550537109374,0.9211969971656799,0.18273800611495972,-1.1394790410995483
1722585153064526300,9.8565263671875,0.9211969971656799,0.18273800611495972,-1.1394790410995483
1722585153074513700,9.866513671875,1.4202799797058105,1.0961140394210815,0.8638250231742859
1722585153084501000,9.8765009765625,1.4202799797058105,1.0961140394210815,0.8638250231742859
1722585153094484200,9.886484130859374,1.3335119485855103,1.3357479572296143,0.7755720019340515
1722585153104467200,9.89646728515625,1.3335119485855103,1.3357479572296143,0.7755720019340515
1722585153114453800,9.906453857421875,-0.49366000294685364,0.02641100063920021,1.1248060464859009
1722585153124440300,9.9164404296875,-0.49366000294685364,0.02641100063920021,1.1248060464859009
1722585153134428200,9.92642822265625,-0.41166698932647705,1.1190990209579468,1.439499020576477
1722585153144415700,9.936415771484375,-0.41166698932647705,1.1190990209579468,1.439499020576477
1722585153154407700,9.94640771484375,0.6844589710235596,-1.8565880060195923,0.4056279957294464
1722585153164399600,9.956399658203125,0.6844589710235596,-1.8565880060195923,0.4056279957294464
1722585153174387200,9.96638720703125,-0.7043200135231018,-3.2247469425201416,-0.4770750105381012
1722585153184374800,9.976374755859375,-0.7043200135231018,-3.2247469425201416,-0.4770750105381012
1722585153194367200,9.9863671875,-1.6113699674606323,-0.23373499512672424,-0.5576750040054321
1722585153204359400,9.996359375,-1.6113699674606323,-0.23373499512672424,-0.5576750040054321
1722585153214336800,10.006336669921875,-0.8163530230522156,-0.7815859913825989,-0.11902199685573578
1722585153224314000,10.016314208984374,-0.8163530230522156,-0.7815859913825989,-0.11902199685573578
1722585153234290400,10.02629052734375,0.7498909831047058,-0.6181280016899109,-1.3982069492340088
1722585153244267000,10.03626708984375,0.7498909831047058,-0.6181280016899109,-1.3982069492340088
1722585153254245400,10.046245361328126,0.32047998905181885,-0.21619799733161926,-1.1709929704666138
1722585153264223700,10.0562236328125,0.32047998905181885,-0.21619799733161926,-1.1709929704666138
1722585153274214100,10.066214111328126,-0.734076976776123,0.19746500253677368,-0.13604600727558136
1722585153284204500,10.07620458984375,-0.734076976776123,0.19746500253677368,-0.13604600727558136
1722585153294182700,10.0861826171875,0.5335590243339539,0.1269409954547882,-0.3561500012874603
1722585153304161000,10.0961611328125,0.5335590243339539,0.1269409954547882,-0.3561500012874603
1722585153314149600,10.106149658203124,2.4584059715270996,1.0870569944381714,1.8612799644470215
1722585153324138200,10.11613818359375,2.4584059715270996,1.0870569944381714,1.8612799644470215
1722585153334129400,10.12612939453125,-3.0111711025238037,-0.7783550024032593,0.38892799615859985
1722585153344120800,10.136120849609375,-3.0111711025238037,-0.7783550024032593,0.38892799615859985
1722585153354110200,10.146110107421874,-0.056168001145124435,-2.479094982147217,-2.331973075866699
1722585153364099300,10.156099365234375,-0.056168001145124435,-2.479094982147217,-2.331973075866699
1722585153374088700,10.166088623046875,1.952415943145752,-1.682723045349121,2.122436046600342
1722585153384078000,10.176078125,1.952415943145752,-1.682723045349121,2.122436046600342
1722585153394061300,10.186061279296876,-2.180295944213867,-1.0964330434799194,0.8784229755401611
1722585153404044800,10.196044921875,-2.180295944213867,-1.0964330434799194,0.8784229755401611
1722585153414039300,10.206039306640625,0.1397700011730194,0.25956401228904724,-1.9762790203094482
1722585153424034000,10.216033935546875,0.1397700011730194,0.25956401228904724,-1.9762790203094482
1722585153434023200,10.226023193359374,-0.8017719984054565,0.7239919900894165,0.8082489967346191
1722585153444012000,10.236011962890625,-0.8017719984054565,0.7239919900894165,0.8082489967346191
1722585153454001700,10.246001708984375,-0.3150649964809418,0.01027199998497963,1.035652995109558
1722585153463991300,10.2559912109375,-0.3150649964809418,0.01027199998497963,1.035652995109558
1722585153473979600,10.265979736328125,-0.23628099262714386,0.5630220174789429,-1.5546849966049194
1722585153483967700,10.2759677734375,-0.23628099262714386,0.5630220174789429,-1.5546849966049194
1722585153493943000,10.285943115234375,-1.7652870416641235,1.9797019958496094,-1.1176249980926514
1722585153503918300,10.29591845703125,-1.7652870416641235,1.9797019958496094,-1.1176249980926514
1722585153513907500,10.305907470703126,-0.609728991985321,0.17019400000572205,1.1214929819107056
1722585153523896800,10.315896728515625,-0.609728991985321,0.17019400000572205,1.1214929819107056
1722585153533877000,10.325876953125,0.2787179946899414,-1.6066139936447144,-0.5386419892311096
1722585153543857000,10.33585693359375,0.2787179946899414,-1.6066139936447144,-0.5386419892311096
1722585153553846300,10.34584619140625,-0.195592001080513,0.14690500497817993,0.03150799870491028
1722585153563835400,10.35583544921875,-0.195592001080513,0.14690500497817993,0.03150799870491028
1722585153573822000,10.365822021484375,0.9377599954605103,-0.5079180002212524,0.2871290147304535
1722585153583808300,10.375808349609375,0.9377599954605103,-0.5079180002212524,0.2871290147304535
1722585153593798400,10.38579833984375,0.7261829972267151,1.2768759727478027,0.6805419921875
1722585153603788500,10.39578857421875,0.7261829972267151,1.2768759727478027,0.6805419921875
1722585153613769200,10.405769287109376,0.010746000334620476,0.4240399897098541,0.131073996424675
1722585153623749600,10.41574951171875,0.010746000334620476,0.4240399897098541,0.131073996424675
1722585153633740000,10.425739990234375,1.4437899589538574,-0.4008989930152893,-0.7610520124435425
1722585153643730200,10.435730224609374,1.4437899589538574,-0.4008989930152893,-0.7610520124435425
1722585153653712000,10.4457119140625,-0.2518230080604553,-0.444348007440567,0.09842900186777115
1722585153663693300,10.455693359375,-0.2518230080604553,-0.444348007440567,0.09842900186777115
1722585153673679400,10.465679443359376,1.6534110307693481,2.574151039123535,2.3919830322265625
1722585153683665200,10.4756650390625,1.6534110307693481,2.574151039123535,2.3919830322265625
1722585153693662000,10.485661865234375,-0.8181470036506653,-0.23695500195026398,0.7330160140991211
1722585153703658800,10.49565869140625,-0.8181470036506653,-0.23695500195026398,0.7330160140991211
1722585153713653800,10.50565380859375,0.49032700061798096,-0.6835129857063293,-1.7366780042648315
1722585153723649000,10.51564892578125,0.49032700061798096,-0.6835129857063293,-1.7366780042648315
1722585153733646000,10.52564599609375,0.4596160054206848,-0.5833960175514221,-0.8196099996566772
1722585153743643100,10.53564306640625,0.4596160054206848,-0.5833960175514221,-0.8196099996566772
1722585153753614800,10.54561474609375,-0.897271990776062,-0.5022640228271484,-0.824770987033844
1722585153763586300,10.55558642578125,-0.897271990776062,-0.5022640228271484,-0.824770987033844
1722585153773554400,10.565554443359375,-0.8130800127983093,0.8308320045471191,-1.5866260528564453
1722585153783522300,10.575522216796875,-0.8130800127983093,0.8308320045471191,-1.5866260528564453
1722585153793497300,10.585497314453125,0.7665659785270691,0.9850090146064758,-0.16070899367332458
1722585153803472400,10.595472412109375,0.7665659785270691,0.9850090146064758,-0.16070899367332458
1722585153813452000,10.6054521484375,0.3746269941329956,-0.7498810291290283,0.6511589884757996
1722585153823431700,10.615431640625,0.3746269941329956,-0.7498810291290283,0.6511589884757996
1722585153833412000,10.625412109375,0.057124000042676926,-0.20627200603485107,-0.1838420033454895
1722585153843392500,10.635392578125,0.057124000042676926,-0.20627200603485107,-0.1838420033454895
1722585153853372400,10.645372314453125,0.2916780114173889,1.995162010192871,-0.349496990442276
1722585153863352000,10.65535205078125,0.2916780114173889,1.995162010192871,-0.349496990442276
1722585153873342500,10.665342529296876,2.100058078765869,0.34739699959754944,0.9178599715232849
1722585153883332900,10.675332763671875,2.100058078765869,0.34739699959754944,0.9178599715232849
1722585153893302000,10.685302001953126,0.4948199987411499,0.4547719955444336,1.8865129947662354
1722585153903271000,10.69527099609375,0.4948199987411499,0.4547719955444336,1.8865129947662354
1722585153913247000,10.7052470703125,-1.2774150371551514,-1.6421680450439453,-1.1520580053329468
1722585153923223000,10.71522314453125,-1.2774150371551514,-1.6421680450439453,-1.1520580053329468
1722585153933212000,10.7252119140625,0.2561340034008026,0.10819300264120102,-0.6518419981002808
1722585153943200500,10.735200439453125,0.2561340034008026,0.10819300264120102,-0.6518419981002808
1722585153953176600,10.745176513671876,2.8128490447998047,0.7535830140113831,0.7184150218963623
1722585153963152400,10.75515234375,2.8128490447998047,0.7535830140113831,0.7184150218963623
1722585153973139200,10.76513916015625,-2.712800979614258,-0.4102559983730316,-1.952746033668518
1722585153983126000,10.7751259765625,-2.712800979614258,-0.4102559983730316,-1.952746033668518
1722585153993112600,10.785112548828126,-2.1272780895233154,0.27140799164772034,-2.4808509349823
1722585154003099100,10.79509912109375,-2.1272780895233154,0.27140799164772034,-2.4808509349823
1722585154013084200,10.805084228515625,1.1287850141525269,-0.8495110273361206,-1.2315629720687866
1722585154023069400,10.8150693359375,1.1287850141525269,-0.8495110273361206,-1.2315629720687866
1722585154033044700,10.825044677734375,0.14543400704860687,0.46265798807144165,2.0127010345458984
1722585154043020300,10.835020263671876,0.14543400704860687,0.46265798807144165,2.0127010345458984
1722585154053007400,10.84500732421875,-0.45522499084472656,1.9264980554580688,0.9136850237846375
1722585154062994200,10.854994140625,-0.45522499084472656,1.9264980554580688,0.9136850237846375
1722585154072983000,10.864983154296874,0.8984370231628418,-0.4532040059566498,-0.915814995765686
1722585154082972200,10.87497216796875,0.8984370231628418,-0.4532040059566498,-0.915814995765686
1722585154092957700,10.884957763671874,-1.0960630178451538,0.6259729862213135,0.9190719723701477
1722585154102943200,10.894943115234375,-1.0960630178451538,0.6259729862213135,0.9190719723701477
1722585154112925700,10.90492578125,-0.21037599444389343,0.530426025390625,0.6728730201721191
1722585154122908400,10.914908447265624,-0.21037599444389343,0.530426025390625,0.6728730201721191
1722585154132897000,10.92489697265625,-2.770019054412842,2.20216703414917,-0.05497799813747406
1722585154142886000,10.934885986328124,-2.770019054412842,2.20216703414917,-0.05497799813747406
1722585154152875500,10.94487548828125,-0.2743229866027832,-0.1543470025062561,-0.9989060163497925
1722585154162865000,10.954864990234375,-0.2743229866027832,-0.1543470025062561,-0.9989060163497925
1722585154172853800,10.964853759765624,-1.73186194896698,-1.410254955291748,-0.0532820001244545
1722585154182842600,10.974842529296875,-1.73186194896698,-1.410254955291748,-0.0532820001244545
1722585154192833800,10.984833740234375,-4.465151786804199,-0.9645670056343079,0.02676600031554699
1722585154202825000,10.994824951171875,-4.465151786804199,-0.9645670056343079,0.02676600031554699
1722585154212805600,11.0048056640625,-0.25196099281311035,-2.5637030601501465,-2.4492509365081787
1722585154222786000,11.0147861328125,-0.25196099281311035,-2.5637030601501465,-2.4492509365081787
1722585154232769300,11.024769287109375,3.3368420600891113,-0.8030830025672913,-0.7198160290718079
1722585154242752300,11.034752197265625,3.3368420600891113,-0.8030830025672913,-0.7198160290718079
1722585154252749800,11.044749755859375,-0.5699179768562317,0.5137609839439392,1.6088509559631348
1722585154262747600,11.05474755859375,-0.5699179768562317,0.5137609839439392,1.6088509559631348
1722585154272731400,11.0647314453125,-2.7641849517822266,-0.8244050145149231,0.09945199638605118
1722585154282715100,11.074715087890626,-2.7641849517822266,-0.8244050145149231,0.09945199638605118
1722585154292701400,11.084701416015625,3.1034328937530518,-0.039861999452114105,-0.8867980241775513
1722585154302688000,11.09468798828125,3.1034328937530518,-0.039861999452114105,-0.8867980241775513
1722585154312679400,11.104679443359375,4.419220924377441,-0.463824987411499,-0.8908630013465881
1722585154322670600,11.114670654296875,4.419220924377441,-0.463824987411499,-0.8908630013465881
1722585154332652000,11.124652099609374,-1.784965991973877,1.0541950464248657,0.2546890079975128
1722585154342633500,11.134633544921876,-1.784965991973877,1.0541950464248657,0.2546890079975128
1722585154352624400,11.144624267578125,1.588670015335083,1.7266730070114136,-0.7525209784507751
1722585154362615000,11.154614990234375,1.588670015335083,1.7266730070114136,-0.7525209784507751
1722585154372599800,11.164599853515625,2.000067949295044,0.5091170072555542,-1.011281967163086
1722585154382584300,11.174584228515625,2.000067949295044,0.5091170072555542,-1.011281967163086
1722585154392571400,11.1845712890625,-0.006405999884009361,0.7230209708213806,0.04849100112915039
1722585154402558700,11.194558837890625,-0.006405999884009361,0.7230209708213806,0.04849100112915039
1722585154412540700,11.204540771484375,-0.9824060201644897,0.1463949978351593,0.607928991317749
1722585154422522600,11.214522705078124,-0.9824060201644897,0.1463949978351593,0.607928991317749
1722585154432515300,11.224515380859375,-0.5913800001144409,1.1987459659576416,0.1663299947977066
1722585154442508000,11.234508056640625,-0.5913800001144409,1.1987459659576416,0.1663299947977066
1722585154452496000,11.244495849609375,1.1792739629745483,-0.5624769926071167,-1.0486990213394165
1722585154462484000,11.25448388671875,1.1792739629745483,-0.5624769926071167,-1.0486990213394165
1722585154472463400,11.26446337890625,-2.4081759452819824,0.754065990447998,1.1717170476913452
1722585154482442800,11.27444287109375,-2.4081759452819824,0.754065990447998,1.1717170476913452
1722585154492434400,11.284434326171874,-0.6814709901809692,-0.7880039811134338,0.42504799365997314
1722585154502425900,11.29442578125,-0.6814709901809692,-0.7880039811134338,0.42504799365997314
1722585154512409000,11.3044091796875,0.8860790133476257,0.5894359946250916,-0.40220901370048523
1722585154522392300,11.314392333984374,0.8860790133476257,0.5894359946250916,-0.40220901370048523
1722585154532360000,11.32435986328125,-0.8718960285186768,-0.46136000752449036,2.0649619102478027
1722585154542327600,11.33432763671875,-0.8718960285186768,-0.46136000752449036,2.0649619102478027
1722585154552314600,11.344314697265625,-1.7511169910430908,1.2408939599990845,2.8348228931427
1722585154562301400,11.354301513671874,-1.7511169910430908,1.2408939599990845,2.8348228931427
1722585154572290800,11.364290771484375,2.624213933944702,-0.9735990166664124,-0.5782349705696106
1722585154582280400,11.374280517578125,2.624213933944702,-0.9735990166664124,-0.5782349705696106
1722585154592259300,11.38425927734375,-2.195931911468506,-0.0483039990067482,0.2391979992389679
1722585154602238200,11.39423828125,-2.195931911468506,-0.0483039990067482,0.2391979992389679
1722585154612229600,11.404229736328125,-1.9296369552612305,-0.060965001583099365,0.6069179773330688
1722585154622220800,11.414220703125,-1.9296369552612305,-0.060965001583099365,0.6069179773330688
1722585154632211200,11.424211181640626,0.4654879868030548,0.1539440006017685,0.41001999378204346
1722585154642201300,11.434201416015625,0.4654879868030548,0.1539440006017685,0.41001999378204346
1722585154652184300,11.444184326171875,1.1280430555343628,0.8452979922294617,1.2261329889297485
1722585154662167300,11.454167236328125,1.1280430555343628,0.8452979922294617,1.2261329889297485
1722585154672161500,11.46416162109375,-0.5733399987220764,1.3758280277252197,1.9931319952011108
1722585154682155800,11.47415576171875,-0.5733399987220764,1.3758280277252197,1.9931319952011108
1722585154692143600,11.4841435546875,-0.7606779932975769,-0.7628859877586365,-0.9697409868240356
1722585154702131700,11.494131591796876,-0.7606779932975769,-0.7628859877586365,-0.9697409868240356
1722585154712110300,11.5041103515625,1.7869809865951538,-0.245728000998497,-2.2742559909820557
1722585154722089200,11.514089111328126,1.7869809865951538,-0.245728000998497,-2.2742559909820557
1722585154732059000,11.524058837890625,-0.15628600120544434,1.3902130126953125,0.9013180136680603
1722585154742028800,11.53402880859375,-0.15628600120544434,1.3902130126953125,0.9013180136680603
1722585154752019000,11.54401904296875,-3.11942195892334,0.04134900122880936,-0.7426499724388123
1722585154762009000,11.554009033203124,-3.11942195892334,0.04134900122880936,-0.7426499724388123
1722585154771985700,11.563985595703125,1.6138559579849243,-0.12442799657583237,-0.16534599661827087
1722585154781962200,11.573962158203125,1.6138559579849243,-0.12442799657583237,-0.16534599661827087
1722585154791953700,11.58395361328125,-0.6420829892158508,-0.13990500569343567,1.6569780111312866
1722585154801945000,11.593945068359375,-0.6420829892158508,-0.13990500569343567,1.6569780111312866
1722585154811937000,11.60393701171875,-1.7858840227127075,0.7676680088043213,-0.09619200229644775
1722585154821929000,11.613928955078125,-1.7858840227127075,0.7676680088043213,-0.09619200229644775
1722585154831906300,11.62390625,1.1933560371398926,0.32402700185775757,0.3635070025920868
1722585154841884000,11.6338837890625,1.1933560371398926,0.32402700185775757,0.3635070025920868
1722585154851861500,11.643861572265624,0.5428839921951294,-0.19572199881076813,0.2659739851951599
1722585154861838800,11.6538388671875,0.5428839921951294,-0.19572199881076813,0.2659739851951599
1722585154871818800,11.66381884765625,-3.0220179557800293,1.105855941772461,-0.8704429864883423
1722585154881798700,11.673798583984375,-3.0220179557800293,1.105855941772461,-0.8704429864883423
1722585154891775200,11.683775146484376,-0.07419300079345703,-0.019766999408602715,-0.8911790251731873
1722585154901752000,11.693751953125,-0.07419300079345703,-0.019766999408602715,-0.8911790251731873
1722585154911716900,11.703716796875,1.9337719678878784,0.4062800109386444,0.8193550109863281
1722585154921681700,11.713681640625,1.9337719678878784,0.4062800109386444,0.8193550109863281
1722585154931656000,11.723656005859375,-2.6511449813842773,0.45087000727653503,0.8852620124816895
1722585154941630200,11.733630126953125,-2.6511449813842773,0.45087000727653503,0.8852620124816895
1722585154951595000,11.743594970703125,-1.4244199991226196,-1.0113329887390137,-1.0557149648666382
1722585154961560000,11.75356005859375,-1.4244199991226196,-1.0113329887390137,-1.0557149648666382
1722585154971538000,11.763537841796875,1.3886489868164062,0.270889014005661,-0.86627197265625
1722585154981516000,11.77351611328125,1.3886489868164062,0.270889014005661,-0.86627197265625
1722585154991506400,11.78350634765625,-3.0238940715789795,-0.0906519964337349,-0.5971940159797668
1722585155001496600,11.79349658203125,-3.0238940715789795,-0.0906519964337349,-0.5971940159797668
1722585155011475000,11.803474853515626,-1.1663470268249512,-0.14376400411128998,-0.6445670127868652
1722585155021453300,11.813453369140625,-1.1663470268249512,-0.14376400411128998,-0.6445670127868652
1722585155031420000,11.823419921875,-0.07097399979829788,-0.5237529873847961,0.1804880052804947
1722585155041386500,11.833386474609375,-0.07097399979829788,-0.5237529873847961,0.1804880052804947
1722585155051364600,11.843364501953126,-0.556879997253418,0.2793630063533783,0.9130579829216003
1722585155061342700,11.8533427734375,-0.556879997253418,0.2793630063533783,0.9130579829216003
1722585155071335200,11.863335205078124,-0.28186100721359253,0.3198130130767822,0.8594250082969666
1722585155081327400,11.873327392578124,-0.28186100721359253,0.3198130130767822,0.8594250082969666
1722585155091314400,11.883314453125,1.320863962173462,-0.49006199836730957,0.8621569871902466
1722585155101301500,11.893301513671876,1.320863962173462,-0.49006199836730957,0.8621569871902466
1722585155111281400,11.903281494140625,0.6238250136375427,1.2223260402679443,1.5484869480133057
1722585155121261300,11.91326123046875,0.6238250136375427,1.2223260402679443,1.5484869480133057
1722585155131240700,11.92324072265625,-0.9377840161323547,0.5972489714622498,0.1868239939212799
1722585155141220000,11.93322021484375,-0.9377840161323547,0.5972489714622498,0.1868239939212799
1722585155151211300,11.943211181640624,-0.9149550199508667,0.9742630124092102,-1.1771199703216553
1722585155161202200,11.9532021484375,-0.9149550199508667,0.9742630124092102,-1.1771199703216553
1722585155171189800,11.963189697265625,1.5505189895629883,-0.38475799560546875,-1.2397500276565552
1722585155181177000,11.973177001953125,1.5505189895629883,-0.38475799560546875,-1.2397500276565552
1722585155191169000,11.9831689453125,0.6857519745826721,0.3987019956111908,-1.0748209953308105
1722585155201161000,11.993160888671875,0.6857519745826721,0.3987019956111908,-1.0748209953308105
1722585155211150000,12.003150146484375,-1.5806699991226196,-0.7951850295066833,-0.621554970741272
1722585155221139500,12.013139404296876,-1.5806699991226196,-0.7951850295066833,-0.621554970741272
1722585155231121400,12.023121337890625,1.1026970148086548,0.8371319770812988,0.9369329810142517
1722585155241103600,12.033103515625,1.1026970148086548,0.8371319770812988,0.9369329810142517
1722585155251077600,12.04307763671875,-1.2384209632873535,-0.2698419988155365,1.0881390571594238
1722585155261051600,12.0530517578125,-1.2384209632873535,-0.2698419988155365,1.0881390571594238
1722585155271030800,12.06303076171875,-2.1557040214538574,0.25141701102256775,-0.10929799824953079
1722585155281010000,12.073010009765625,-2.1557040214538574,0.25141701102256775,-0.10929799824953079
1722585155290989600,12.082989501953126,-0.46514400839805603,-0.1040399968624115,-0.6428980231285095
1722585155300969200,12.09296923828125,-0.46514400839805603,-0.1040399968624115,-0.6428980231285095
1722585155310957300,12.102957275390626,-1.1806700229644775,-0.47676700353622437,-0.4764989912509918
1722585155320945400,12.1129453125,-1.1806700229644775,-0.47676700353622437,-0.4764989912509918
1722585155330922200,12.122922119140625,-0.038015998899936676,-0.21527700126171112,-0.48943498730659485
1722585155340899000,12.132899169921876,-0.038015998899936676,-0.21527700126171112,-0.48943498730659485
1722585155350886700,12.14288671875,0.47968900203704834,-0.33774998784065247,-0.019850999116897583
1722585155360874200,12.152874267578126,0.47968900203704834,-0.33774998784065247,-0.019850999116897583
1722585155370863400,12.16286328125,-0.4301689863204956,-0.7631199955940247,0.04836500063538551
1722585155380852700,12.172852783203124,-0.4301689863204956,-0.7631199955940247,0.04836500063538551
1722585155390837800,12.182837646484375,0.04776500165462494,-0.38388898968696594,0.8352320194244385
1722585155400822800,12.19282275390625,0.04776500165462494,-0.38388898968696594,0.8352320194244385
1722585155410798600,12.202798583984375,0.5177599787712097,0.16802899539470673,1.2942010164260864
1722585155420774400,12.2127744140625,0.5177599787712097,0.16802899539470673,1.2942010164260864
1722585155430749700,12.222749755859375,0.5706999897956848,0.04848200082778931,-0.27646398544311523
1722585155440725200,12.232725341796876,0.5706999897956848,0.04848200082778931,-0.27646398544311523
1722585155450712800,12.242712890625,0.22616800665855408,1.9613829851150513,0.4656830132007599
1722585155460700400,12.252700439453125,0.22616800665855408,1.9613829851150513,0.4656830132007599
1722585155470688500,12.2626884765625,-0.42765501141548157,-1.2369790077209473,-0.19868500530719757
1722585155480676600,12.272676513671875,-0.42765501141548157,-1.2369790077209473,-0.19868500530719757
1722585155490664200,12.282664306640624,1.2915589809417725,0.028230000287294388,-0.9478260278701782
1722585155500651800,12.29265185546875,1.2915589809417725,0.028230000287294388,-0.9478260278701782
1722585155510639000,12.30263916015625,-0.6738430261611938,0.42805901169776917,-1.1341520547866821
1722585155520626200,12.312626220703125,-0.6738430261611938,0.42805901169776917,-1.1341520547866821
1722585155530603000,12.32260302734375,-0.4444600045681,-0.9896939992904663,-1.67385995388031
1722585155540579800,12.332579833984376,-0.4444600045681,-0.9896939992904663,-1.67385995388031
1722585155550569000,12.34256884765625,0.25902900099754333,-0.11992199718952179,-0.9922379851341248
1722585155560558000,12.35255810546875,0.25902900099754333,-0.11992199718952179,-0.9922379851341248
1722585155570549000,12.362549072265624,-0.8516309857368469,-1.212156057357788,-0.6253399848937988
1722585155580539600,12.37253955078125,-0.8516309857368469,-1.212156057357788,-0.6253399848937988
1722585155590530600,12.382530517578125,0.36921700835227966,-0.5647130012512207,0.3521679937839508
1722585155600521700,12.392521728515625,0.36921700835227966,-0.5647130012512207,0.3521679937839508
1722585155610499300,12.402499267578126,-1.9257570505142212,-0.5533930063247681,0.8974909782409668
