time,seconds_elapsed,z,y,x
1722585545682342000,-0.192658203125,1.4511220455169678,1.0497640371322632,0.20662200450897217
1722585545702252300,-0.172747802734375,1.4511220455169678,1.0497640371322632,0.20662200450897217
1722585545722162700,-0.15283740234375,1.4511220455169678,1.0497640371322632,0.20662200450897217
1722585545742073300,-0.1329267578125,1.4511220455169678,1.0497640371322632,0.20662200450897217
1722585545761983700,-0.113016357421875,1.4511220455169678,1.0497640371322632,0.20662200450897217
1722585545781894100,-0.09310595703125,1.4511220455169678,1.0497640371322632,0.20662200450897217
1722585545801804500,-0.073195556640625,1.4511220455169678,1.0497640371322632,0.20662200450897217
1722585545821715200,-0.053284912109375,1.4511220455169678,1.0497640371322632,0.20662200450897217
1722585545841715200,-0.033284912109375,1.4511220455169678,1.0497640371322632,0.20662200450897217
1722585545861715200,-0.013284912109375,1.4511220455169678,1.0497640371322632,0.20662200450897217
1722585545881715200,0.006715087890625,1.4511220455169678,1.0497640371322632,0.20662200450897217
1722585545901715200,0.026715087890625,1.4511220455169678,1.0497640371322632,0.20662200450897217
1722585545921715200,0.046715087890625,1.4511220455169678,1.0497640371322632,0.20662200450897217
1722585545941715200,0.066715087890625,1.4511220455169678,1.0497640371322632,0.20662200450897217
1722585545961715200,0.086715087890625,1.4511220455169678,1.0497640371322632,0.20662200450897217
1722585545981715200,0.106715087890625,1.4511220455169678,1.0497640371322632,0.20662200450897217
1722585546001715200,0.126715087890625,1.4511220455169678,1.0497640371322632,0.20662200450897217
1722585546021141800,0.146141845703125,1.4511220455169678,1.0497640371322632,0.20662200450897217
1722585546031123200,0.156123291015625,-0.07154499739408493,-0.5773490071296692,-0.1765819936990738
1722585546041104600,0.166104736328125,-0.07154499739408493,-0.5773490071296692,-0.1765819936990738
1722585546051086000,0.176086181640625,-0.14219500124454498,0.5638499855995178,-0.282382994890213
1722585546061067800,0.18606787109375,-0.14219500124454498,0.5638499855995178,-0.282382994890213
1722585546071063800,0.196063720703125,-1.2974820137023926,0.3611370027065277,-0.537792980670929
1722585546081060000,0.20606005859375,-1.2974820137023926,0.3611370027065277,-0.537792980670929
1722585546091039700,0.216039794921875,1.0270500183105469,0.14851799607276917,-0.4625079929828644
1722585546101019400,0.226019287109375,1.0270500183105469,0.14851799607276917,-0.4625079929828644
1722585546111011600,0.236011474609375,-0.8551740050315857,-0.011478000320494175,-0.4232119917869568
1722585546121003800,0.246003662109375,-0.8551740050315857,-0.011478000320494175,-0.4232119917869568
1722585546130987000,0.255987060546875,-0.2775160074234009,0.5168370008468628,-0.29362601041793823
1722585546140970200,0.26597021484375,-0.2775160074234009,0.5168370008468628,-0.29362601041793823
1722585546150962000,0.2759619140625,-0.761792004108429,0.565189003944397,-0.22731100022792816
1722585546160953600,0.28595361328125,-0.761792004108429,0.565189003944397,-0.22731100022792816
1722585546170937300,0.295937255859375,0.8579980134963989,0.22153900563716888,-0.2371930032968521
1722585546180921300,0.30592138671875,0.8579980134963989,0.22153900563716888,-0.2371930032968521
1722585546190903800,0.31590380859375,-0.7514349818229675,0.049281999468803406,-0.042539000511169434
1722585546200886500,0.325886474609375,-0.7514349818229675,0.049281999468803406,-0.042539000511169434
1722585546210865000,0.335864990234375,0.22138600051403046,0.4927319884300232,-0.09141000360250473
1722585546220843500,0.345843505859375,0.22138600051403046,0.4927319884300232,-0.09141000360250473
1722585546230826200,0.355826171875,-0.45682600140571594,0.011432000435888767,-0.06702899932861328
1722585546240809200,0.365809326171875,-0.45682600140571594,0.011432000435888767,-0.06702899932861328
1722585546250799400,0.37579931640625,0.8193309903144836,0.06538499891757965,-0.11720900237560272
1722585546260789500,0.38578955078125,0.8193309903144836,0.06538499891757965,-0.11720900237560272
1722585546270769400,0.395769287109375,-1.1261310577392578,-0.012507000006735325,-0.03595300018787384
1722585546280749300,0.405749267578125,-1.1261310577392578,-0.012507000006735325,-0.03595300018787384
1722585546290733300,0.4157333984375,0.6983960270881653,0.12922200560569763,0.05515399947762489
1722585546300717300,0.42571728515625,0.6983960270881653,0.12922200560569763,0.05515399947762489
1722585546310707200,0.435707275390625,-0.23096300661563873,0.35422900319099426,0.20959900319576263
1722585546320697000,0.445697021484375,-0.23096300661563873,0.35422900319099426,0.20959900319576263
1722585546330666200,0.455666259765625,0.08692800253629684,-0.42503800988197327,-0.15677499771118164
1722585546340635600,0.4656357421875,0.08692800253629684,-0.42503800988197327,-0.15677499771118164
1722585546350604500,0.4756044921875,0.09110599756240845,1.1385610103607178,1.1385109424591064
1722585546360573400,0.485573486328125,0.09110599756240845,1.1385610103607178,1.1385109424591064
1722585546370542000,0.4955419921875,0.722678005695343,0.34504199028015137,0.24786999821662903
1722585546380510500,0.505510498046875,0.722678005695343,0.34504199028015137,0.24786999821662903
1722585546390480600,0.515480712890625,-0.45505499839782715,0.27181899547576904,-0.1693599969148636
1722585546400450800,0.525450927734375,-0.45505499839782715,0.27181899547576904,-0.1693599969148636
1722585546410440200,0.535440185546875,0.11079999804496765,-0.5233950018882751,-0.42864400148391724
1722585546420429600,0.5454296875,0.11079999804496765,-0.5233950018882751,-0.42864400148391724
1722585546430409700,0.55540966796875,-0.05603000149130821,-2.0880041122436523,-0.3663089871406555
1722585546440390000,0.565389892578125,-0.05603000149130821,-2.0880041122436523,-0.3663089871406555
1722585546450367700,0.57536767578125,1.2659059762954712,0.5076329708099365,0.693809986114502
1722585546460345600,0.585345703125,1.2659059762954712,0.5076329708099365,0.693809986114502
1722585546470340000,0.595340087890625,-1.4940190315246582,0.12656499445438385,-0.7815229892730713
1722585546480334800,0.6053349609375,-1.4940190315246582,0.12656499445438385,-0.7815229892730713
1722585546490317800,0.61531787109375,1.8366550207138062,-0.3285309970378876,-0.905879020690918
1722585546500300800,0.62530078125,1.8366550207138062,-0.3285309970378876,-0.905879020690918
1722585546510271700,0.635271728515625,2.634537935256958,-0.1185849979519844,-0.3121179938316345
1722585546520243000,0.645242919921875,2.634537935256958,-0.1185849979519844,-0.3121179938316345
1722585546530214400,0.65521435546875,-3.9503250122070312,-0.236395001411438,-0.11238200217485428
1722585546540186000,0.66518603515625,-3.9503250122070312,-0.236395001411438,-0.11238200217485428
1722585546550156000,0.675156005859375,1.6405420303344727,0.1193929985165596,-1.2328439950942993
1722585546560125700,0.685125732421875,1.6405420303344727,0.1193929985165596,-1.2328439950942993
1722585546570093000,0.695093017578125,0.04160299897193909,-0.18826399743556976,0.5391340255737305
1722585546580060200,0.70506005859375,0.04160299897193909,-0.18826399743556976,0.5391340255737305
1722585546590030300,0.7150302734375,-1.8478679656982422,0.7706590294837952,0.04422999918460846
1722585546600000500,0.72500048828125,-1.8478679656982422,0.7706590294837952,0.04422999918460846
1722585546609984300,0.734984375,-0.9575819969177246,0.3563610017299652,-0.2995449900627136
1722585546619968000,0.744968017578125,-0.9575819969177246,0.3563610017299652,-0.2995449900627136
1722585546629959000,0.754958984375,2.006366014480591,-0.3896529972553253,0.10930299758911133
1722585546639949600,0.764949462890625,2.006366014480591,-0.3896529972553253,0.10930299758911133
1722585546649915400,0.774915283203125,-0.852308988571167,1.0690449476242065,0.7398970127105713
1722585546659881500,0.784881591796875,-0.852308988571167,1.0690449476242065,0.7398970127105713
1722585546669849000,0.79484912109375,-1.9796279668807983,-0.4423539936542511,-0.1912900060415268
1722585546679817000,0.80481689453125,-1.9796279668807983,-0.4423539936542511,-0.1912900060415268
1722585546689787600,0.81478759765625,1.8277629613876343,-0.6352689862251282,0.10428900271654129
1722585546699758000,0.824758056640625,1.8277629613876343,-0.6352689862251282,0.10428900271654129
1722585546709729300,0.834729248046875,-0.10107900202274323,0.366237998008728,0.3173240125179291
1722585546719700200,0.8447001953125,-0.10107900202274323,0.366237998008728,0.3173240125179291
1722585546729670400,0.85467041015625,-1.7998600006103516,0.6007050275802612,-0.313973993062973
1722585546739640300,0.864640380859375,-1.7998600006103516,0.6007050275802612,-0.313973993062973
1722585546749621500,0.87462158203125,2.3670899868011475,-0.03371699899435043,-0.09753400087356567
1722585546759602400,0.8846025390625,2.3670899868011475,-0.03371699899435043,-0.09753400087356567
1722585546769593300,0.89459326171875,-0.2985369861125946,0.03197599947452545,0.19104400277137756
1722585546779584000,0.904583984375,-0.2985369861125946,0.03197599947452545,0.19104400277137756
1722585546789566700,0.914566650390625,-2.2561559677124023,0.7379410266876221,0.03402800112962723
1722585546799549400,0.924549560546875,-2.2561559677124023,0.7379410266876221,0.03402800112962723
1722585546809527600,0.934527587890625,2.300663948059082,-0.7515079975128174,-0.3478409945964813
1722585546819506000,0.944505859375,2.300663948059082,-0.7515079975128174,-0.3478409945964813
1722585546829483500,0.9544833984375,0.8874840140342712,0.8127009868621826,0.7295889854431152
1722585546839461000,0.964461181640625,0.8874840140342712,0.8127009868621826,0.7295889854431152
1722585546849427500,0.974427490234375,-1.8566759824752808,-0.20468999445438385,0.09958600252866745
1722585546859393500,0.9843935546875,-1.8566759824752808,-0.20468999445438385,0.09958600252866745
1722585546869374000,0.9943740234375,0.8811770081520081,0.816785991191864,0.5677919983863831
1722585546879354000,1.00435400390625,0.8811770081520081,0.816785991191864,0.5677919983863831
1722585546889325300,1.0143251953125,0.5758500099182129,0.2670390009880066,0.2306780070066452
1722585546899296500,1.024296630859375,0.5758500099182129,0.2670390009880066,0.2306780070066452
1722585546909287000,1.034286865234375,-0.20632199943065643,-1.3091859817504883,-0.1807350069284439
1722585546919277300,1.04427734375,-0.20632199943065643,-1.3091859817504883,-0.1807350069284439
1722585546929255200,1.054255126953125,-1.401540994644165,-0.1995140016078949,0.0058189998380839825
1722585546939232800,1.064232666015625,-1.401540994644165,-0.1995140016078949,0.0058189998380839825
1722585546949212700,1.074212646484375,0.6422010064125061,0.11318600177764893,-0.31686198711395264
1722585546959192600,1.084192626953125,0.6422010064125061,0.11318600177764893,-0.31686198711395264
1722585546969171500,1.09417138671875,1.264665961265564,-0.0341779999434948,-0.24999499320983887
1722585546979150300,1.104150390625,1.264665961265564,-0.0341779999434948,-0.24999499320983887
1722585546989119700,1.11411962890625,-2.432257890701294,-0.11222600191831589,-0.4813530147075653
1722585546999089000,1.1240888671875,-2.432257890701294,-0.11222600191831589,-0.4813530147075653
1722585547009061400,1.134061279296875,1.6573870182037354,1.1387799978256226,-0.00839299988001585
1722585547019033900,1.144033935546875,1.6573870182037354,1.1387799978256226,-0.00839299988001585
1722585547029015000,1.15401513671875,0.9535459876060486,0.5095610022544861,0.4117569923400879
1722585547038996500,1.16399658203125,0.9535459876060486,0.5095610022544861,0.4117569923400879
1722585547048964900,1.17396484375,-1.8559950590133667,0.026628000661730766,0.11493200063705444
1722585547058933200,1.183933349609375,-1.8559950590133667,0.026628000661730766,0.11493200063705444
1722585547068899300,1.1938994140625,1.0743900537490845,1.7377820014953613,0.7480000257492065
1722585547078865700,1.20386572265625,1.0743900537490845,1.7377820014953613,0.7480000257492065
1722585547088845000,1.213844970703125,0.7193989753723145,0.2274480015039444,0.5099560022354126
1722585547098824200,1.22382421875,0.7193989753723145,0.2274480015039444,0.5099560022354126
1722585547108797000,1.233796875,0.19959500432014465,0.36095499992370605,-0.00020300000323913991
1722585547118769700,1.243769775390625,0.19959500432014465,0.36095499992370605,-0.00020300000323913991
1722585547128753000,1.2537529296875,-0.8114460110664368,-0.8175789713859558,-0.11376100033521652
1722585547138735900,1.26373583984375,-0.8114460110664368,-0.8175789713859558,-0.11376100033521652
1722585547148713000,1.273712890625,1.15801203250885,-0.9050229787826538,-0.459881991147995
1722585547158690300,1.283690185546875,1.15801203250885,-0.9050229787826538,-0.459881991147995
1722585547168659000,1.293658935546875,0.12224599719047546,-0.4329259991645813,-0.23313799500465393
1722585547178627800,1.3036279296875,0.12224599719047546,-0.4329259991645813,-0.23313799500465393
1722585547188597000,1.313596923828125,-1.3310749530792236,0.06746599823236465,-0.17542900145053864
1722585547198566100,1.323566162109375,-1.3310749530792236,0.06746599823236465,-0.17542900145053864
1722585547208533800,1.33353369140625,0.8435360193252563,0.6329280138015747,-0.09781300276517868
1722585547218501400,1.34350146484375,0.8435360193252563,0.6329280138015747,-0.09781300276517868
1722585547228470000,1.353469970703125,0.818792998790741,0.10432100296020508,-0.1370989978313446
1722585547238439000,1.36343896484375,0.818792998790741,0.10432100296020508,-0.1370989978313446
1722585547248418600,1.37341845703125,-1.2435129880905151,-0.27810201048851013,-0.03693100064992905
1722585547258398200,1.383398193359375,-1.2435129880905151,-0.27810201048851013,-0.03693100064992905
1722585547268376300,1.393376220703125,0.006732999812811613,0.745369017124176,0.21397200226783752
1722585547278354200,1.403354248046875,0.006732999812811613,0.745369017124176,0.21397200226783752
1722585547288322300,1.413322265625,1.1921319961547852,-0.039820000529289246,-0.14420799911022186
1722585547298290200,1.423290283203125,1.1921319961547852,-0.039820000529289246,-0.14420799911022186
1722585547308285400,1.433285400390625,-0.27367299795150757,0.09808599948883057,-0.3005810081958771
1722585547318280700,1.44328076171875,-0.27367299795150757,0.09808599948883057,-0.3005810081958771
1722585547328259800,1.453259765625,-0.4304549992084503,-0.9276599884033203,-0.3761940002441406
1722585547338239000,1.463239013671875,-0.4304549992084503,-0.9276599884033203,-0.3761940002441406
1722585547348235000,1.473235107421875,0.44394999742507935,-0.13938400149345398,0.32392698526382446
1722585547358231000,1.48323095703125,0.44394999742507935,-0.13938400149345398,0.32392698526382446
1722585547368224500,1.493224609375,-0.1090719997882843,-0.3792949914932251,-0.12017600238323212
1722585547378218000,1.503218017578125,-0.1090719997882843,-0.3792949914932251,-0.12017600238323212
1722585547388185300,1.513185302734375,-0.2105959951877594,0.5867369771003723,-0.043949998915195465
1722585547398152700,1.523152587890625,-0.2105959951877594,0.5867369771003723,-0.043949998915195465
1722585547408140800,1.533140869140625,-0.23337000608444214,-0.7336450219154358,-0.18172499537467957
1722585547418129000,1.54312890625,-0.23337000608444214,-0.7336450219154358,-0.18172499537467957
1722585547428117000,1.553116943359375,0.2855930030345917,-0.717411994934082,-0.020632000640034676
1722585547438105000,1.56310498046875,0.2855930030345917,-0.717411994934082,-0.020632000640034676
1722585547448084000,1.573083984375,-0.4382599890232086,0.9403809905052185,0.1360519975423813
1722585547458062800,1.583062744140625,-0.4382599890232086,0.9403809905052185,0.1360519975423813
1722585547468050700,1.59305078125,-0.35647299885749817,-0.24463699758052826,-0.009208000265061855
1722585547478038500,1.60303857421875,-0.35647299885749817,-0.24463699758052826,-0.009208000265061855
1722585547488003800,1.61300390625,0.3578279912471771,-0.8749529719352722,-0.2368759959936142
1722585547497969400,1.622969482421875,0.3578279912471771,-0.8749529719352722,-0.2368759959936142
1722585547507959000,1.632958984375,-0.18443100154399872,0.22669099271297455,0.06607799977064133
1722585547517948700,1.64294873046875,-0.18443100154399872,0.22669099271297455,0.06607799977064133
1722585547527923700,1.652923828125,-0.7399340271949768,-0.08841899782419205,-0.1485069990158081
1722585547537898500,1.6628984375,-0.7399340271949768,-0.08841899782419205,-0.1485069990158081
1722585547547878000,1.6728779296875,0.7653319835662842,-0.1745530068874359,0.004819999914616346
1722585547557857000,1.68285693359375,0.7653319835662842,-0.1745530068874359,0.004819999914616346
1722585547567836000,1.6928359375,-0.25246700644493103,-0.013461999595165253,0.009252999909222126
1722585547577814500,1.702814453125,-0.25246700644493103,-0.013461999595165253,0.009252999909222126
1722585547587781000,1.712781005859375,-0.49688899517059326,-0.013956000097095966,-0.05302099883556366
1722585547597747700,1.722747802734375,-0.49688899517059326,-0.013956000097095966,-0.05302099883556366
1722585547607734300,1.732734375,0.6069949865341187,0.29888400435447693,0.020092999562621117
1722585547617720600,1.742720458984375,0.6069949865341187,0.29888400435447693,0.020092999562621117
1722585547627711700,1.752711669921875,-0.24996599555015564,-0.17854900658130646,0.023554999381303787
1722585547637703000,1.762702880859375,-0.24996599555015564,-0.17854900658130646,0.023554999381303787
1722585547647689700,1.772689697265625,0.14262400567531586,-0.013616000302135944,0.094030000269413
1722585547657676300,1.78267626953125,0.14262400567531586,-0.013616000302135944,0.094030000269413
1722585547667652000,1.792652099609375,-0.8102930188179016,-0.17738200724124908,0.026868000626564026
1722585547677627600,1.802627685546875,-0.8102930188179016,-0.17738200724124908,0.026868000626564026
1722585547687614000,1.812614013671875,0.923192024230957,0.2152940034866333,0.09324199706315994
1722585547697600000,1.82260009765625,0.923192024230957,0.2152940034866333,0.09324199706315994
1722585547707585500,1.83258544921875,-0.16564799845218658,-0.2618870139122009,-0.04680600017309189
1722585547717571000,1.842571044921875,-0.16564799845218658,-0.2618870139122009,-0.04680600017309189
1722585547727545600,1.852545654296875,0.7693359851837158,-0.25885000824928284,-0.29429399967193604
1722585547737519900,1.862519775390625,0.7693359851837158,-0.25885000824928284,-0.29429399967193604
1722585547747497500,1.87249755859375,-1.048298954963684,-0.33673200011253357,-0.5259339809417725
1722585547757475000,1.88247509765625,-1.048298954963684,-0.33673200011253357,-0.5259339809417725
1722585547767452700,1.89245263671875,-0.18081499636173248,0.060896001756191254,1.0268360376358032
1722585547777430000,1.902429931640625,-0.18081499636173248,0.060896001756191254,1.0268360376358032
1722585547787395300,1.912395263671875,0.12713299691677094,-0.08559899777173996,0.018216000869870186
1722585547797360400,1.9223603515625,0.12713299691677094,-0.08559899777173996,0.018216000869870186
1722585547807325200,1.9323251953125,-0.2728390097618103,0.06731600314378738,-1.1501150131225586
1722585547817290000,1.9422900390625,-0.2728390097618103,0.06731600314378738,-1.1501150131225586
1722585547827277000,1.952277099609375,-0.8278549909591675,-0.08471199870109558,-0.11740300059318542
1722585547837264400,1.962264404296875,-0.8278549909591675,-0.08471199870109558,-0.11740300059318542
1722585547847241000,1.972240966796875,0.20967300236225128,0.30017799139022827,0.5068569779396057
1722585547857217300,1.98221728515625,0.20967300236225128,0.30017799139022827,0.5068569779396057
1722585547867194600,1.992194580078125,-0.31380701065063477,-0.026525000110268593,0.19657500088214874
1722585547877171700,2.002171630859375,-0.31380701065063477,-0.026525000110268593,0.19657500088214874
1722585547887148500,2.0121484375,0.41040199995040894,-0.43160998821258545,-0.26462700963020325
1722585547897125400,2.02212548828125,0.41040199995040894,-0.43160998821258545,-0.26462700963020325
1722585547907112700,2.03211279296875,0.42142099142074585,-0.04367399960756302,-0.09411799907684326
1722585547917100000,2.04210009765625,0.42142099142074585,-0.04367399960756302,-0.09411799907684326
1722585547927066400,2.05206640625,-0.28212299942970276,-0.29190701246261597,-0.0055669997818768024
1722585547937033000,2.062032958984375,-0.28212299942970276,-0.29190701246261597,-0.0055669997818768024
1722585547947025700,2.072025634765625,-0.2053840011358261,0.6510210037231445,-0.0018619999755173922
1722585547957018600,2.0820185546875,-0.2053840011358261,0.6510210037231445,-0.0018619999755173922
1722585547966985000,2.09198486328125,-0.45490700006484985,-0.5993149876594543,-0.08105599880218506
1722585547976951300,2.101951416015625,-0.45490700006484985,-0.5993149876594543,-0.08105599880218506
1722585547986931200,2.11193115234375,1.2645829916000366,0.19711999595165253,-0.3071939945220947
1722585547996911400,2.121911376953125,1.2645829916000366,0.19711999595165253,-0.3071939945220947
1722585548006887700,2.1318876953125,-0.47890299558639526,0.20572000741958618,0.854515016078949
1722585548016864000,2.141864013671875,-0.47890299558639526,0.20572000741958618,0.854515016078949
1722585548026831400,2.151831298828125,0.3032340109348297,0.21074800193309784,0.6836919784545898
1722585548036798700,2.161798828125,0.3032340109348297,0.21074800193309784,0.6836919784545898
1722585548046776000,2.171776123046875,1.7927639484405518,1.1561609506607056,-0.6365190148353577
1722585548056753400,2.18175341796875,1.7927639484405518,1.1561609506607056,-0.6365190148353577
1722585548066717400,2.191717529296875,-2.4615120887756348,-0.2573240101337433,-0.8064910173416138
1722585548076681700,2.201681640625,-2.4615120887756348,-0.2573240101337433,-0.8064910173416138
1722585548086647000,2.21164697265625,-1.741420030593872,0.7567939758300781,0.43074798583984375
1722585548096612400,2.2216123046875,-1.741420030593872,0.7567939758300781,0.43074798583984375
1722585548106599400,2.231599365234375,0.7332969903945923,-0.04270000010728836,0.6590399742126465
1722585548116586800,2.241586669921875,0.7332969903945923,-0.04270000010728836,0.6590399742126465
1722585548126565600,2.251565673828125,0.3012459874153137,-0.46618300676345825,-0.41993701457977295
1722585548136544500,2.26154443359375,0.3012459874153137,-0.46618300676345825,-0.41993701457977295
1722585548146519300,2.271519287109375,-0.5894070267677307,0.6733610033988953,-0.7302020192146301
1722585548156494000,2.281494140625,-0.5894070267677307,0.6733610033988953,-0.7302020192146301
1722585548166463200,2.291463134765625,-1.678339958190918,-0.32071900367736816,0.9092389941215515
1722585548176432400,2.301432373046875,-1.678339958190918,-0.32071900367736816,0.9092389941215515
1722585548186410000,2.311409912109375,3.132620096206665,-0.10921499878168106,0.2663629949092865
1722585548196387600,2.3213876953125,3.132620096206665,-0.10921499878168106,0.2663629949092865
1722585548206352400,2.331352294921875,-2.5291569232940674,-0.17090900242328644,-0.14121000468730927
1722585548216317400,2.3413173828125,-2.5291569232940674,-0.17090900242328644,-0.14121000468730927
1722585548226293200,2.351293212890625,1.005499005317688,0.6916549801826477,-0.0737299993634224
1722585548236269000,2.36126904296875,1.005499005317688,0.6916549801826477,-0.0737299993634224
1722585548246247700,2.37124755859375,0.2128479927778244,-0.4097909927368164,0.2863689959049225
1722585548256226300,2.381226318359375,0.2128479927778244,-0.4097909927368164,0.2863689959049225
1722585548266192000,2.39119189453125,1.228760004043579,-0.8010269999504089,-0.17376300692558289
1722585548276157400,2.401157470703125,1.228760004043579,-0.8010269999504089,-0.17376300692558289
1722585548286150400,2.411150390625,-1.7647629976272583,-0.317220002412796,-0.10185399651527405
1722585548296143400,2.421143310546875,-1.7647629976272583,-0.317220002412796,-0.10185399651527405
1722585548306132700,2.4311328125,0.9756739735603333,0.16669799387454987,-0.03906000033020973
1722585548316122000,2.4411220703125,0.9756739735603333,0.16669799387454987,-0.03906000033020973
1722585548326111700,2.45111181640625,0.7897400259971619,-0.13172000646591187,0.18904399871826172
1722585548336101000,2.46110107421875,0.7897400259971619,-0.13172000646591187,0.18904399871826172
1722585548346080800,2.471080810546875,-0.35509800910949707,-0.6629189848899841,-0.35644298791885376
1722585548356060400,2.481060302734375,-0.35509800910949707,-0.6629189848899841,-0.35644298791885376
1722585548366039000,2.4910390625,-1.3325120210647583,-0.08010300248861313,-0.10528799891471863
1722585548376017400,2.501017333984375,-1.3325120210647583,-0.08010300248861313,-0.10528799891471863
1722585548385994200,2.510994140625,1.7076610326766968,0.24885399639606476,-0.027746999636292458
1722585548395971000,2.52097119140625,1.7076610326766968,0.24885399639606476,-0.027746999636292458
1722585548405950000,2.530949951171875,-0.043056000024080276,-0.132765993475914,0.1300410032272339
1722585548415928800,2.5409287109375,-0.043056000024080276,-0.132765993475914,0.1300410032272339
1722585548425906200,2.55090625,-1.000920057296753,-0.8295570015907288,-0.39346298575401306
1722585548435883300,2.56088330078125,-1.000920057296753,-0.8295570015907288,-0.39346298575401306
1722585548445863400,2.570863525390625,-0.4635140001773834,-0.3617990016937256,-0.06999099999666214
1722585548455843600,2.580843505859375,-0.4635140001773834,-0.3617990016937256,-0.06999099999666214
1722585548465836000,2.5908359375,1.4267230033874512,0.03504500165581703,0.07665999978780746
1722585548475828500,2.600828369140625,1.4267230033874512,0.03504500165581703,0.07665999978780746
1722585548485797600,2.610797607421875,-0.6203370094299316,0.20098300278186798,0.016405999660491943
1722585548495766500,2.6207666015625,-0.6203370094299316,0.20098300278186798,0.016405999660491943
1722585548505756400,2.63075634765625,-0.8554959893226624,-0.028315000236034393,-0.1271120011806488
1722585548515746300,2.640746337890625,-0.8554959893226624,-0.028315000236034393,-0.1271120011806488
1722585548525715000,2.65071484375,1.1041460037231445,0.35408300161361694,0.25954198837280273
1722585548535683600,2.66068359375,1.1041460037231445,0.35408300161361694,0.25954198837280273
1722585548545662000,2.670661865234375,0.47345298528671265,-0.02469100058078766,0.09995999932289124
1722585548555640300,2.680640380859375,0.47345298528671265,-0.02469100058078766,0.09995999932289124
1722585548565610200,2.6906103515625,-0.7911069989204407,0.9137669801712036,0.3314589858055115
1722585548575580400,2.700580322265625,-0.7911069989204407,0.9137669801712036,0.3314589858055115
1722585548585559300,2.710559326171875,-0.06974299997091293,0.11555600166320801,-0.04269799962639809
1722585548595538400,2.720538330078125,-0.06974299997091293,0.11555600166320801,-0.04269799962639809
1722585548605521700,2.730521728515625,1.192782998085022,-0.4351849853992462,-0.05323199927806854
1722585548615505200,2.740505126953125,1.192782998085022,-0.4351849853992462,-0.05323199927806854
1722585548625495300,2.750495361328125,-0.37575000524520874,0.2745169997215271,0.0024049999192357063
1722585548635485700,2.760485595703125,-0.37575000524520874,0.2745169997215271,0.0024049999192357063
1722585548645467400,2.77046728515625,-1.08725905418396,-0.2818309962749481,-0.31955400109291077
1722585548655449000,2.780448974609375,-1.08725905418396,-0.2818309962749481,-0.31955400109291077
1722585548665442000,2.790442138671875,1.1810719966888428,-0.9043930172920227,-0.4735420048236847
1722585548675434800,2.800434814453125,1.1810719966888428,-0.9043930172920227,-0.4735420048236847
1722585548685426700,2.8104267578125,0.4693560004234314,0.20962099730968475,0.29160401225090027
1722585548695418600,2.820418701171875,0.4693560004234314,0.20962099730968475,0.29160401225090027
1722585548705408300,2.830408203125,-1.5926120281219482,0.13973599672317505,-0.14611299335956573
1722585548715398100,2.840398193359375,-1.5926120281219482,0.13973599672317505,-0.14611299335956573
1722585548725380600,2.850380615234375,0.6771349906921387,-0.2523060142993927,-0.20983299612998962
1722585548735363000,2.860363037109375,0.6771349906921387,-0.2523060142993927,-0.20983299612998962
1722585548745343000,2.870343017578125,0.6727979779243469,-0.08628900349140167,0.04134500026702881
1722585548755323000,2.880322998046875,0.6727979779243469,-0.08628900349140167,0.04134500026702881
1722585548765304000,2.890303955078125,-1.1431610584259033,0.46116700768470764,0.05631199851632118
1722585548775285200,2.90028515625,-1.1431610584259033,0.46116700768470764,0.05631199851632118
1722585548785265700,2.910265625,0.12294600158929825,0.37971198558807373,0.13353200256824493
1722585548795246000,2.92024609375,0.12294600158929825,0.37971198558807373,0.13353200256824493
1722585548805228000,2.93022802734375,0.6756910085678101,-0.4016610085964203,0.22071300446987152
1722585548815210000,2.9402099609375,0.6756910085678101,-0.4016610085964203,0.22071300446987152
1722585548825195000,2.950195068359375,-0.25708600878715515,0.37037399411201477,0.44606301188468933
1722585548835180300,2.96018017578125,-0.25708600878715515,0.37037399411201477,0.44606301188468933
1722585548845165600,2.97016552734375,-1.2680059671401978,0.21411199867725372,0.19266000390052795
1722585548855151000,2.980151123046875,-1.2680059671401978,0.21411199867725372,0.19266000390052795
1722585548865134600,2.990134521484375,1.3350880146026611,-0.19027499854564667,0.015405000187456608
1722585548875118300,3.000118408203125,1.3350880146026611,-0.19027499854564667,0.015405000187456608
1722585548885111800,3.01011181640625,0.4876829981803894,0.11634500324726105,0.13811500370502472
1722585548895105500,3.02010546875,0.4876829981803894,0.11634500324726105,0.13811500370502472
1722585548905085400,3.03008544921875,-1.1541390419006348,0.11241000145673752,-0.3463349938392639
1722585548915065600,3.040065673828125,-1.1541390419006348,0.11241000145673752,-0.3463349938392639
1722585548925057800,3.050057861328125,0.7299259901046753,-0.1219870001077652,-0.0487079992890358
1722585548935050000,3.060050048828125,0.7299259901046753,-0.1219870001077652,-0.0487079992890358
1722585548945030100,3.070030029296875,0.4143710136413574,-0.5155419707298279,-0.12219099700450897
1722585548955010300,3.08001025390625,0.4143710136413574,-0.5155419707298279,-0.12219099700450897
1722585548965000400,3.09000048828125,-0.47248899936676025,0.12059500068426132,0.18258999288082123
1722585548974990600,3.099990478515625,-0.47248899936676025,0.12059500068426132,0.18258999288082123
1722585548984975400,3.109975341796875,-0.4048579931259155,0.4427570104598999,-0.04120999947190285
1722585548994960100,3.119960205078125,-0.4048579931259155,0.4427570104598999,-0.04120999947190285
1722585549004939800,3.129939697265625,1.940129041671753,-0.34009599685668945,-0.03232700005173683
1722585549014919400,3.13991943359375,1.940129041671753,-0.34009599685668945,-0.03232700005173683
1722585549024906500,3.149906494140625,0.583935022354126,0.06827200204133987,0.2722089886665344
1722585549034893300,3.159893310546875,0.583935022354126,0.06827200204133987,0.2722089886665344
1722585549044880400,3.16988037109375,-0.7781130075454712,0.33036500215530396,0.042040999978780746
1722585549054867700,3.17986767578125,-0.7781130075454712,0.33036500215530396,0.042040999978780746
1722585549064848100,3.18984814453125,1.0739879608154297,-1.300737977027893,0.11969999969005585
1722585549074828500,3.19982861328125,1.0739879608154297,-1.300737977027893,0.11969999969005585
1722585549084821200,3.2098212890625,0.6464859843254089,1.6966350078582764,0.7283750176429749
1722585549094814000,3.21981396484375,0.6464859843254089,1.6966350078582764,0.7283750176429749
1722585549104794600,3.229794677734375,-1.1290899515151978,-0.46870800852775574,-0.5322909951210022
1722585549114775600,3.239775634765625,-1.1290899515151978,-0.46870800852775574,-0.5322909951210022
1722585549124770000,3.24977001953125,2.8344430923461914,1.9935779571533203,0.06370099633932114
1722585549134764500,3.2597646484375,2.8344430923461914,1.9935779571533203,0.06370099633932114
1722585549144749600,3.26974951171875,-0.33651500940322876,0.4416710138320923,0.5917149782180786
1722585549154734600,3.279734619140625,-0.33651500940322876,0.4416710138320923,0.5917149782180786
1722585549164727300,3.289727294921875,-2.618032932281494,0.0505950003862381,-0.2685050070285797
1722585549174719700,3.2997197265625,-2.618032932281494,0.0505950003862381,-0.2685050070285797
1722585549184688000,3.309688232421875,2.8090479373931885,-0.26645800471305847,-0.5947009921073914
1722585549194656300,3.31965625,2.8090479373931885,-0.26645800471305847,-0.5947009921073914
1722585549204637700,3.3296376953125,-0.16424599289894104,1.4439460039138794,1.0303289890289307
1722585549214619100,3.339619140625,-0.16424599289894104,1.4439460039138794,1.0303289890289307
1722585549224586500,3.34958642578125,-3.422334909439087,0.4814710021018982,-0.46194300055503845
1722585549234553600,3.3595537109375,-3.422334909439087,0.4814710021018982,-0.46194300055503845
1722585549244533000,3.369532958984375,0.6595110297203064,0.12148500233888626,-0.5326849818229675
1722585549254512400,3.379512451171875,0.6595110297203064,0.12148500233888626,-0.5326849818229675
1722585549264491500,3.389491455078125,3.2260079383850098,1.1877169609069824,0.7088620066642761
1722585549274470700,3.399470703125,3.2260079383850098,1.1877169609069824,0.7088620066642761
1722585549284453000,3.409453125,-2.15972900390625,0.7708830237388611,0.6283090114593506
1722585549294435300,3.419435302734375,-2.15972900390625,0.7708830237388611,0.6283090114593506
1722585549304416800,3.429416748046875,-3.6129519939422607,0.30373600125312805,-0.17364700138568878
1722585549314398200,3.439398193359375,-3.6129519939422607,0.30373600125312805,-0.17364700138568878
1722585549324380200,3.449380126953125,2.925684928894043,-1.8702830076217651,-0.7247769832611084
1722585549334362400,3.4593623046875,2.925684928894043,-1.8702830076217651,-0.7247769832611084
1722585549344355300,3.469355224609375,3.403079032897949,-6.090653896331787,-1.389639973640442
1722585549354348000,3.47934814453125,3.403079032897949,-6.090653896331787,-1.389639973640442
1722585549364315600,3.489315673828125,-1.6348240375518799,-4.333714008331299,1.0412709712982178
1722585549374283300,3.499283203125,-1.6348240375518799,-4.333714008331299,1.0412709712982178
1722585549384260400,3.50926025390625,2.9959020614624023,0.22274300456047058,0.9548329710960388
1722585549394237200,3.5192373046875,2.9959020614624023,0.22274300456047058,0.9548329710960388
1722585549404218400,3.52921826171875,0.895438015460968,-4.596423149108887,-1.6664060354232788
1722585549414199600,3.539199462890625,0.895438015460968,-4.596423149108887,-1.6664060354232788
1722585549424180500,3.549180419921875,4.5799150466918945,1.1691789627075195,-0.43355101346969604
1722585549434161200,3.5591611328125,4.5799150466918945,1.1691789627075195,-0.43355101346969604
1722585549444142300,3.569142333984375,4.348231792449951,2.6879169940948486,0.5772960186004639
1722585549454123500,3.57912353515625,4.348231792449951,2.6879169940948486,0.5772960186004639
1722585549464114400,3.589114501953125,3.6811749935150146,0.6418759822845459,0.920403003692627
1722585549474105600,3.599105712890625,3.6811749935150146,0.6418759822845459,0.920403003692627
1722585549484098000,3.60909814453125,2.1725969314575195,-0.14442500472068787,-0.5737980008125305
1722585549494090800,3.6190908203125,2.1725969314575195,-0.14442500472068787,-0.5737980008125305
1722585549504080000,3.629079833984375,4.3657732009887695,-0.6254559755325317,-0.9302809834480286
1722585549514068700,3.63906884765625,4.3657732009887695,-0.6254559755325317,-0.9302809834480286
1722585549524056600,3.649056640625,1.016929030418396,-1.5266610383987427,0.9446070194244385
1722585549534044700,3.659044677734375,1.016929030418396,-1.5266610383987427,0.9446070194244385
1722585549544027100,3.669027099609375,-4.747322082519531,-1.3164459466934204,-0.31769201159477234
1722585549554009900,3.679009765625,-4.747322082519531,-1.3164459466934204,-0.31769201159477234
1722585549563978800,3.688978759765625,-0.154571995139122,-0.9001520276069641,-1.6173679828643799
1722585549573947600,3.69894775390625,-0.154571995139122,-0.9001520276069641,-1.6173679828643799
1722585549583937000,3.70893701171875,0.6526640057563782,1.0734070539474487,-0.3817940056324005
1722585549593926400,3.718926513671875,0.6526640057563782,1.0734070539474487,-0.3817940056324005
1722585549603918800,3.7289189453125,-3.992197036743164,0.5155659914016724,1.203819990158081
1722585549613911300,3.738911376953125,-3.992197036743164,0.5155659914016724,1.203819990158081
1722585549623888600,3.748888671875,-3.106436014175415,0.8568540215492249,0.8600050210952759
1722585549633866000,3.758865966796875,-3.106436014175415,0.8568540215492249,0.8600050210952759
1722585549643834600,3.768834716796875,-1.8480050563812256,-0.09109599888324738,-0.39775198698043823
1722585549653803300,3.77880322265625,-1.8480050563812256,-0.09109599888324738,-0.39775198698043823
1722585549663792600,3.788792724609375,0.646818995475769,-0.5318520069122314,-0.7836899757385254
1722585549673782300,3.7987822265625,0.646818995475769,-0.5318520069122314,-0.7836899757385254
1722585549683772200,3.808772216796875,1.3357230424880981,0.20259200036525726,-1.0750900506973267
1722585549693762000,3.818761962890625,1.3357230424880981,0.20259200036525726,-1.0750900506973267
1722585549703737000,3.828737060546875,-2.276761054992676,-0.4691070020198822,-0.3515869975090027
1722585549713712000,3.838712158203125,-2.276761054992676,-0.4691070020198822,-0.3515869975090027
1722585549723682600,3.8486826171875,1.309440016746521,1.9278960227966309,0.9018120169639587
1722585549733652700,3.85865283203125,1.309440016746521,1.9278960227966309,0.9018120169639587
1722585549743634000,3.868634033203125,-0.28574100136756897,-0.6778439879417419,0.21741800010204315
1722585549753615000,3.878614990234375,-0.28574100136756897,-0.6778439879417419,0.21741800010204315
1722585549763606000,3.88860595703125,1.1021100282669067,0.72986900806427,0.5520349740982056
1722585549773597000,3.898596923828125,1.1021100282669067,0.72986900806427,0.5520349740982056
1722585549783593000,3.908593017578125,-2.4397900104522705,-0.5186370015144348,-0.5910149812698364
1722585549793589200,3.91858935546875,-2.4397900104522705,-0.5186370015144348,-0.5910149812698364
1722585549803563300,3.928563232421875,0.1686220020055771,-1.1520969867706299,0.10656499862670898
1722585549813537300,3.938537353515625,0.1686220020055771,-1.1520969867706299,0.10656499862670898
1722585549823523000,3.948523193359375,2.59382700920105,0.5007190108299255,0.7650319933891296
1722585549833508900,3.9585087890625,2.59382700920105,0.5007190108299255,0.7650319933891296
1722585549843506400,3.96850634765625,-0.34704700112342834,0.8275550007820129,-0.2062849998474121
1722585549853503700,3.978503662109375,-0.34704700112342834,0.8275550007820129,-0.2062849998474121
1722585549863491000,3.988490966796875,-0.21963299810886383,2.0881149768829346,0.605197012424469
1722585549873478400,3.998478515625,-0.21963299810886383,2.0881149768829346,0.605197012424469
1722585549883464200,4.008464111328125,1.49515700340271,0.04997200146317482,0.5783339738845825
1722585549893450000,4.018449951171875,1.49515700340271,0.04997200146317482,0.5783339738845825
1722585549903436300,4.028436279296875,-1.8131940364837646,-1.5124469995498657,0.48642000555992126
1722585549913422300,4.03842236328125,-1.8131940364837646,-1.5124469995498657,0.48642000555992126
1722585549923417900,4.04841796875,0.44334301352500916,-1.5884499549865723,-1.104315996170044
1722585549933413400,4.058413330078125,0.44334301352500916,-1.5884499549865723,-1.104315996170044
1722585549943404300,4.068404296875,1.7517410516738892,-0.0818059965968132,-1.8878719806671143
1722585549953395200,4.078395263671875,1.7517410516738892,-0.0818059965968132,-1.8878719806671143
1722585549963375400,4.088375244140625,1.541782021522522,1.5809719562530518,0.14464899897575378
1722585549973355300,4.098355224609375,1.541782021522522,1.5809719562530518,0.14464899897575378
1722585549983333000,4.1083330078125,-1.3406840562820435,-1.2323859930038452,-0.2837960124015808
1722585549993311000,4.11831103515625,-1.3406840562820435,-1.2323859930038452,-0.2837960124015808
1722585550003299800,4.1282998046875,-2.66444993019104,-0.5277479887008667,-1.3585929870605469
1722585550013288400,4.138288330078125,-2.66444993019104,-0.5277479887008667,-1.3585929870605469
1722585550023278600,4.148278564453125,0.95660001039505,-1.4733059406280518,-2.156167984008789
1722585550033268700,4.158268798828125,0.95660001039505,-1.4733059406280518,-2.156167984008789
1722585550043249200,4.168249267578125,-1.553318977355957,0.9617000222206116,0.32541900873184204
1722585550053229600,4.1782294921875,-1.553318977355957,0.9617000222206116,0.32541900873184204
1722585550063209200,4.188209228515625,-3.2156970500946045,1.0618870258331299,0.6146330237388611
1722585550073188900,4.19818896484375,-3.2156970500946045,1.0618870258331299,0.6146330237388611
1722585550083179800,4.2081796875,-0.3795650005340576,-0.01765800081193447,-0.9751440286636353
1722585550093170700,4.218170654296875,-0.3795650005340576,-0.01765800081193447,-0.9751440286636353
1722585550103161600,4.22816162109375,-1.1574369668960571,0.7941110134124756,0.9355130195617676
1722585550113152500,4.238152587890625,-1.1574369668960571,0.7941110134124756,0.9355130195617676
1722585550123143400,4.248143310546875,-1.7147599458694458,0.34055599570274353,0.8881589770317078
1722585550133134600,4.258134521484375,-1.7147599458694458,0.34055599570274353,0.8881589770317078
1722585550143126500,4.26812646484375,0.1355849951505661,1.2035510540008545,0.5099809765815735
1722585550153118500,4.278118408203125,0.1355849951505661,1.2035510540008545,0.5099809765815735
1722585550163098600,4.2880986328125,1.6509310007095337,1.8395400047302246,1.5990699529647827
1722585550173079000,4.2980791015625,1.6509310007095337,1.8395400047302246,1.5990699529647827
1722585550183056100,4.30805615234375,-0.29068198800086975,2.42604398727417,2.1786859035491943
1722585550193033200,4.318033203125,-0.29068198800086975,2.42604398727417,2.1786859035491943
1722585550203014100,4.32801416015625,0.9749910235404968,2.311367988586426,1.7468700408935547
1722585550212995000,4.3379951171875,0.9749910235404968,2.311367988586426,1.7468700408935547
1722585550222974000,4.347973876953125,2.582158088684082,1.8282959461212158,0.6744400262832642
1722585550232953000,4.357953125,2.582158088684082,1.8282959461212158,0.6744400262832642
1722585550242942500,4.3679423828125,0.4434430003166199,1.4338040351867676,0.5379930138587952
1722585550252932000,4.37793212890625,0.4434430003166199,1.4338040351867676,0.5379930138587952
1722585550262915000,4.3879150390625,-0.2914060056209564,0.4146069884300232,0.19540999829769135
1722585550272898000,4.39789794921875,-0.2914060056209564,0.4146069884300232,0.19540999829769135
1722585550282878700,4.407878662109375,0.39508599042892456,-1.3973939418792725,-0.5792449712753296
1722585550292859600,4.417859619140625,0.39508599042892456,-1.3973939418792725,-0.5792449712753296
1722585550302847700,4.42784765625,0.408174991607666,-1.4347660541534424,-1.9036450386047363
1722585550312835600,4.437835693359375,0.408174991607666,-1.4347660541534424,-1.9036450386047363
1722585550322825700,4.44782568359375,-0.3031559884548187,-2.4107840061187744,-2.0232269763946533
1722585550332815600,4.457815673828125,-0.3031559884548187,-2.4107840061187744,-2.0232269763946533
1722585550342805000,4.467804931640625,-1.2731260061264038,-1.3680499792099,-0.861739993095398
1722585550352794600,4.477794677734375,-1.2731260061264038,-1.3680499792099,-0.861739993095398
1722585550362784800,4.48778466796875,1.126615047454834,0.132533997297287,0.3380979895591736
1722585550372775000,4.49777490234375,1.126615047454834,0.132533997297287,0.3380979895591736
1722585550382765000,4.50776513671875,0.4722450077533722,0.9375600218772888,0.3607499897480011
1722585550392755200,4.517755126953125,0.4722450077533722,0.9375600218772888,0.3607499897480011
1722585550402744300,4.527744384765625,-1.4237890243530273,1.8043620586395264,-0.23086300492286682
1722585550412733700,4.537733642578125,-1.4237890243530273,1.8043620586395264,-0.23086300492286682
1722585550422712300,4.54771240234375,-0.706121027469635,1.17432701587677,-0.0584929995238781
1722585550432691000,4.55769091796875,-0.706121027469635,1.17432701587677,-0.0584929995238781
1722585550442681600,4.567681640625,1.8957550525665283,-0.7107920050621033,-0.3069320023059845
1722585550452672300,4.57767236328125,1.8957550525665283,-0.7107920050621033,-0.3069320023059845
1722585550462653200,4.587653076171875,-2.554042100906372,-2.5297069549560547,-0.426349014043808
1722585550472633900,4.5976337890625,-2.554042100906372,-2.5297069549560547,-0.426349014043808
1722585550482617900,4.607617919921875,-0.9641469717025757,-0.020008999854326248,-0.6559810042381287
1722585550492601600,4.6176015625,-0.9641469717025757,-0.020008999854326248,-0.6559810042381287
1722585550502590000,4.62758984375,2.1430819034576416,3.325766086578369,0.760125994682312
1722585550512578600,4.63757861328125,2.1430819034576416,3.325766086578369,0.760125994682312
1722585550522545000,4.647544921875,2.180790901184082,1.9063509702682495,0.7670170068740845
1722585550532511200,4.65751123046875,2.180790901184082,1.9063509702682495,0.7670170068740845
1722585550542487800,4.66748779296875,-0.763122022151947,-2.7935469150543213,-1.1662310361862183
1722585550552464100,4.677464111328125,-0.763122022151947,-2.7935469150543213,-1.1662310361862183
1722585550562445300,4.6874453125,0.4572249948978424,-0.2674480080604553,-0.9909939765930176
1722585550572426500,4.697426513671875,0.4572249948978424,-0.2674480080604553,-0.9909939765930176
1722585550582416100,4.707416015625,2.6631510257720947,4.1609368324279785,0.5218170285224915
1722585550592405500,4.717405517578125,2.6631510257720947,4.1609368324279785,0.5218170285224915
1722585550602370800,4.727370849609375,0.20801599323749542,0.5107499957084656,0.0658859983086586
1722585550612336400,4.73733642578125,0.20801599323749542,0.5107499957084656,0.0658859983086586
1722585550622317000,4.747317138671875,-0.9034050107002258,-3.8393330574035645,-1.1443959474563599
1722585550632297700,4.757297607421875,-0.9034050107002258,-3.8393330574035645,-1.1443959474563599
1722585550642263000,4.767262939453125,-2.4554591178894043,2.9778249263763428,0.7748669981956482
1722585550652228400,4.777228271484375,-2.4554591178894043,2.9778249263763428,0.7748669981956482
1722585550662208800,4.787208740234375,1.1069170236587524,0.8383820056915283,-0.11828099936246872
1722585550672189200,4.797189208984375,1.1069170236587524,0.8383820056915283,-0.11828099936246872
1722585550682160400,4.807160400390625,-0.37435901165008545,-4.344522953033447,-0.6506829857826233
1722585550692131300,4.81713134765625,-0.37435901165008545,-4.344522953033447,-0.6506829857826233
1722585550702109700,4.827109619140625,-2.015460968017578,4.015194892883301,1.594849944114685
1722585550712088000,4.837088134765625,-2.015460968017578,4.015194892883301,1.594849944114685
1722585550722070500,4.847070556640625,0.0425570011138916,-0.17926299571990967,0.4018239974975586
1722585550732053000,4.857052978515625,0.0425570011138916,-0.17926299571990967,0.4018239974975586
1722585550742033000,4.867032958984375,-1.290719985961914,-5.784517765045166,2.7358169555664062
1722585550752012500,4.877012451171875,-1.290719985961914,-5.784517765045166,2.7358169555664062
1722585550761982200,4.886982177734375,1.0252399444580078,4.7126569747924805,2.3518478870391846
1722585550771951900,4.896951904296875,1.0252399444580078,4.7126569747924805,2.3518478870391846
1722585550781942500,4.906942626953125,-0.0821480005979538,-5.0119829177856445,-1.3713849782943726
1722585550791933200,4.91693310546875,-0.0821480005979538,-5.0119829177856445,-1.3713849782943726
1722585550801924900,4.9269248046875,3.0364060401916504,1.969048023223877,1.510633945465088
1722585550811916500,4.93691650390625,3.0364060401916504,1.969048023223877,1.510633945465088
1722585550821910500,4.94691064453125,-4.119769096374512,0.09247799962759018,-1.1832720041275024
1722585550831904300,4.956904296875,-4.119769096374512,0.09247799962759018,-1.1832720041275024
1722585550841884200,4.96688427734375,-1.1326370239257812,2.2799010276794434,-0.32207998633384705
1722585550851864000,4.976864013671875,-1.1326370239257812,2.2799010276794434,-0.32207998633384705
1722585550861842700,4.9868427734375,0.19609400629997253,-0.028603000566363335,-0.40939798951148987
1722585550871821600,4.996821533203125,0.19609400629997253,-0.028603000566363335,-0.40939798951148987
1722585550881810200,5.00681005859375,1.227679967880249,-1.9895930290222168,-1.246500015258789
1722585550891799000,5.016799072265625,1.227679967880249,-1.9895930290222168,-1.246500015258789
1722585550901789400,5.02678955078125,-2.246584892272949,0.585536003112793,-1.154379963874817
1722585550911779800,5.03677978515625,-2.246584892272949,0.585536003112793,-1.154379963874817
1722585550921771500,5.046771484375,0.08578299731016159,-1.1992830038070679,-0.808322012424469
1722585550931763200,5.05676318359375,0.08578299731016159,-1.1992830038070679,-0.808322012424469
1722585550941740500,5.066740478515625,-0.6062009930610657,0.9485939741134644,-0.3821359872817993
1722585550951717600,5.076717529296875,-0.6062009930610657,0.9485939741134644,-0.3821359872817993
1722585550961706000,5.0867060546875,1.5452879667282104,-2.4082698822021484,-2.203687906265259
1722585550971694300,5.0966943359375,1.5452879667282104,-2.4082698822021484,-2.203687906265259
1722585550981675000,5.106675048828125,0.405335009098053,3.7434639930725098,-0.63543301820755
1722585550991655700,5.11665576171875,0.405335009098053,3.7434639930725098,-0.63543301820755
1722585551001651200,5.126651123046875,-1.4882769584655762,-2.38938307762146,-1.1189019680023193
1722585551011646700,5.136646728515625,-1.4882769584655762,-2.38938307762146,-1.1189019680023193
1722585551021638000,5.146637939453125,-2.6901299953460693,3.3979830741882324,1.7013089656829834
1722585551031628800,5.15662890625,-2.6901299953460693,3.3979830741882324,1.7013089656829834
1722585551041607400,5.166607421875,-0.328249990940094,-0.42115798592567444,-1.579653024673462
1722585551051586000,5.1765859375,-0.328249990940094,-0.42115798592567444,-1.579653024673462
1722585551061575700,5.18657568359375,-0.18480099737644196,-3.506834030151367,0.2832159996032715
1722585551071565300,5.1965654296875,-0.18480099737644196,-3.506834030151367,0.2832159996032715
1722585551081557500,5.2065576171875,-0.0783810019493103,3.4128410816192627,2.45121693611145
1722585551091549700,5.2165498046875,-0.0783810019493103,3.4128410816192627,2.45121693611145
1722585551101531000,5.22653076171875,-1.598031997680664,-0.8063790202140808,-0.5713340044021606
1722585551111512300,5.23651220703125,-1.598031997680664,-0.8063790202140808,-0.5713340044021606
1722585551121479700,5.246479736328125,-0.08032199740409851,-1.5678050518035889,-1.3080600500106812
1722585551131447000,5.256447021484375,-0.08032199740409851,-1.5678050518035889,-1.3080600500106812
1722585551141421800,5.266421875,0.2952579855918884,2.552762031555176,0.9958009719848633
1722585551151396400,5.276396240234375,0.2952579855918884,2.552762031555176,0.9958009719848633
1722585551161374500,5.28637451171875,-1.163532018661499,0.2589069902896881,2.6543080806732178
1722585551171352600,5.2963525390625,-1.163532018661499,0.2589069902896881,2.6543080806732178
1722585551181330700,5.30633056640625,1.0003470182418823,-2.116377115249634,-1.7519769668579102
1722585551191309000,5.31630908203125,1.0003470182418823,-2.116377115249634,-1.7519769668579102
1722585551201290200,5.326290283203125,-1.0919580459594727,0.6147279739379883,-2.400641918182373
1722585551211271200,5.336271240234375,-1.0919580459594727,0.6147279739379883,-2.400641918182373
1722585551221249000,5.3462490234375,2.0573229789733887,2.026952028274536,0.5552160143852234
1722585551231227100,5.35622705078125,2.0573229789733887,2.026952028274536,0.5552160143852234
1722585551241193700,5.36619384765625,-2.8894190788269043,1.2742420434951782,2.5288889408111572
1722585551251160300,5.376160400390625,-2.8894190788269043,1.2742420434951782,2.5288889408111572
1722585551261136100,5.38613623046875,-0.9355959892272949,-1.7525279521942139,-2.1760849952697754
1722585551271112200,5.3961123046875,-0.9355959892272949,-1.7525279521942139,-2.1760849952697754
1722585551281101800,5.406101806640625,1.9723880290985107,-0.18872499465942383,-2.8906490802764893
1722585551291091500,5.416091552734375,1.9723880290985107,-0.18872499465942383,-2.8906490802764893
1722585551301073400,5.426073486328125,-1.0785410404205322,-1.2243750095367432,2.454253911972046
1722585551311055600,5.4360556640625,-1.0785410404205322,-1.2243750095367432,2.454253911972046
1722585551321037000,5.446037109375,0.7556989789009094,2.137902021408081,3.753631114959717
1722585551331018500,5.4560185546875,0.7556989789009094,2.137902021408081,3.753631114959717
1722585551341001000,5.4660009765625,2.278964042663574,0.5619410276412964,-0.5263479948043823
1722585551350983200,5.475983154296875,2.278964042663574,0.5619410276412964,-0.5263479948043823
1722585551360964900,5.48596484375,0.03902500122785568,0.9860349893569946,-1.1591869592666626
1722585551370946600,5.495946533203125,0.03902500122785568,0.9860349893569946,-1.1591869592666626
1722585551380917500,5.50591748046875,-0.094759002327919,1.249953031539917,1.3063030242919922
1722585551390888200,5.51588818359375,-0.094759002327919,1.249953031539917,1.3063030242919922
1722585551400865000,5.525864990234375,-1.1688079833984375,0.06411799788475037,0.5175999999046326
1722585551410841900,5.535841796875,-1.1688079833984375,0.06411799788475037,0.5175999999046326
1722585551420823600,5.545823486328125,-2.6493289470672607,1.4147629737854004,-1.30275297164917
1722585551430805200,5.55580517578125,-2.6493289470672607,1.4147629737854004,-1.30275297164917
1722585551440785400,5.565785400390625,-3.5174570083618164,-0.5620819926261902,-1.2297790050506592
1722585551450765300,5.575765380859375,-3.5174570083618164,-0.5620819926261902,-1.2297790050506592
1722585551460756500,5.585756591796875,2.7263638973236084,-1.1242059469223022,-0.511339008808136
1722585551470747400,5.595747314453125,2.7263638973236084,-1.1242059469223022,-0.511339008808136
1722585551480725000,5.60572509765625,4.719385147094727,0.2697939872741699,-0.3711490035057068
1722585551490702800,5.615702880859375,4.719385147094727,0.2697939872741699,-0.3711490035057068
1722585551500700200,5.6257001953125,-5.440877914428711,-2.5030410289764404,-1.5339720249176025
1722585551510697200,5.635697265625,-5.440877914428711,-2.5030410289764404,-1.5339720249176025
1722585551520684300,5.645684326171875,2.949657917022705,-1.5546200275421143,-0.25196701288223267
1722585551530671400,5.65567138671875,2.949657917022705,-1.5546200275421143,-0.25196701288223267
1722585551540655400,5.6656552734375,4.246811866760254,-1.2844619750976562,0.749705970287323
1722585551550639400,5.675639404296875,4.246811866760254,-1.2844619750976562,0.749705970287323
1722585551560626700,5.685626708984375,2.0669689178466797,0.08668799698352814,0.9231330156326294
1722585551570613800,5.69561376953125,2.0669689178466797,0.08668799698352814,0.9231330156326294
1722585551580590800,5.7055908203125,-0.5306349992752075,1.4803880453109741,1.4477649927139282
1722585551590568000,5.71556787109375,-0.5306349992752075,1.4803880453109741,1.4477649927139282
1722585551600547800,5.7255478515625,-1.777137041091919,-2.7932660579681396,-0.23303000628948212
1722585551610528000,5.735528076171875,-1.777137041091919,-2.7932660579681396,-0.23303000628948212
1722585551620511500,5.745511474609375,2.7448489665985107,-0.02037999965250492,-1.6023939847946167
1722585551630495000,5.755494873046875,2.7448489665985107,-0.02037999965250492,-1.6023939847946167
1722585551640474000,5.76547412109375,4.374022960662842,2.1324329376220703,3.207447052001953
1722585551650453500,5.77545361328125,4.374022960662842,2.1324329376220703,3.207447052001953
1722585551660436200,5.785436279296875,0.9769409894943237,-2.6349329948425293,-1.1216880083084106
1722585551670419000,5.7954189453125,0.9769409894943237,-2.6349329948425293,-1.1216880083084106
1722585551680386300,5.80538623046875,1.6801190376281738,0.10420099645853043,-2.4700429439544678
1722585551690353700,5.815353759765625,1.6801190376281738,0.10420099645853043,-2.4700429439544678
1722585551700334600,5.82533447265625,3.825896978378296,0.2130420058965683,-1.0255099534988403
1722585551710315500,5.8353154296875,3.825896978378296,0.2130420058965683,-1.0255099534988403
1722585551720298200,5.84529833984375,1.5345189571380615,-1.8466739654541016,0.6113510131835938
1722585551730281000,5.855281005859375,1.5345189571380615,-1.8466739654541016,0.6113510131835938
1722585551740250600,5.865250732421875,2.820030927658081,-0.31374698877334595,0.7255399823188782
1722585551750220300,5.87522021484375,2.820030927658081,-0.31374698877334595,0.7255399823188782
1722585551760202800,5.88520263671875,-5.5015459060668945,-3.1014111042022705,-2.208604097366333
1722585551770185500,5.895185546875,-5.5015459060668945,-3.1014111042022705,-2.208604097366333
1722585551780156200,5.90515625,-1.4105429649353027,-3.7949368953704834,-2.0054569244384766
1722585551790126800,5.915126953125,-1.4105429649353027,-3.7949368953704834,-2.0054569244384766
1722585551800096000,5.925095947265625,3.048854112625122,-0.2392600029706955,-0.33535298705101013
1722585551810065200,5.935065185546875,3.048854112625122,-0.2392600029706955,-0.33535298705101013
1722585551820047000,5.945047119140625,-4.244949817657471,-4.017528057098389,-2.7500970363616943
1722585551830029000,5.955029052734375,-4.244949817657471,-4.017528057098389,-2.7500970363616943
1722585551840000500,5.96500048828125,-6.107791900634766,1.7235519886016846,0.33028000593185425
1722585551849972000,5.974971923828125,-6.107791900634766,1.7235519886016846,0.33028000593185425
1722585551859963400,5.98496337890625,0.7973759770393372,2.0349979400634766,0.040546998381614685
1722585551869955000,5.994955078125,0.7973759770393372,2.0349979400634766,0.040546998381614685
1722585551879936500,6.0049365234375,-1.0455440282821655,3.45681095123291,1.1212190389633179
1722585551889918000,6.01491796875,-1.0455440282821655,3.45681095123291,1.1212190389633179
1722585551899898600,6.024898681640625,-0.737762987613678,2.671457052230835,3.508584976196289
1722585551909879000,6.034879150390625,-0.737762987613678,2.671457052230835,3.508584976196289
1722585551919869200,6.044869140625,-2.4898250102996826,2.137260913848877,1.1273640394210815
1722585551929859000,6.054859130859375,-2.4898250102996826,2.137260913848877,1.1273640394210815
1722585551939837000,6.0648369140625,0.8683300018310547,2.132917881011963,0.18266500532627106
1722585551949815000,6.07481494140625,0.8683300018310547,2.132917881011963,0.18266500532627106
1722585551959784400,6.084784423828125,1.6740080118179321,1.4332120418548584,1.0755720138549805
1722585551969753600,6.094753662109375,1.6740080118179321,1.4332120418548584,1.0755720138549805
1722585551979742200,6.1047421875,-2.0728819370269775,0.41581299901008606,3.3984711170196533
1722585551989730800,6.114730712890625,-2.0728819370269775,0.41581299901008606,3.3984711170196533
1722585551999710700,6.124710693359375,2.3935160636901855,0.967170000076294,-0.3099980056285858
1722585552009691000,6.13469091796875,2.3935160636901855,0.967170000076294,-0.3099980056285858
1722585552019666700,6.144666748046875,0.1276410073041916,1.855409026145935,-0.32595399022102356
1722585552029642500,6.154642578125,0.1276410073041916,1.855409026145935,-0.32595399022102356
1722585552039633000,6.1646328125,-1.2213129997253418,1.508795976638794,0.25554999709129333
1722585552049623300,6.174623291015625,-1.2213129997253418,1.508795976638794,0.25554999709129333
1722585552059592200,6.18459228515625,-0.40250900387763977,2.121845006942749,-0.8284260034561157
1722585552069561300,6.194561279296875,-0.40250900387763977,2.121845006942749,-0.8284260034561157
1722585552079553000,6.204552978515625,0.07549399882555008,1.5138670206069946,-1.641389012336731
1722585552089545000,6.214544921875,0.07549399882555008,1.5138670206069946,-1.641389012336731
1722585552099538000,6.224537841796875,1.1058349609375,2.48252010345459,1.3615909814834595
1722585552109531100,6.23453125,1.1058349609375,2.48252010345459,1.3615909814834595
1722585552119512800,6.244512939453125,-2.7315540313720703,1.0458029508590698,-0.1593399941921234
1722585552129494500,6.25449462890625,-2.7315540313720703,1.0458029508590698,-0.1593399941921234
1722585552139478500,6.264478515625,0.8360999822616577,1.0875270366668701,-1.587702989578247
1722585552149462500,6.274462646484375,0.8360999822616577,1.0875270366668701,-1.587702989578247
1722585552159450400,6.284450439453125,3.4371979236602783,1.2574280500411987,-2.0101048946380615
1722585552169438200,6.294438232421875,3.4371979236602783,1.2574280500411987,-2.0101048946380615
1722585552179417300,6.304417236328125,-0.5184630155563354,0.2941499948501587,1.395231008529663
1722585552189396700,6.314396728515625,-0.5184630155563354,0.2941499948501587,1.395231008529663
1722585552199379000,6.32437890625,1.3749749660491943,0.28428399562835693,0.5083699822425842
1722585552209361200,6.334361083984375,1.3749749660491943,0.28428399562835693,0.5083699822425842
1722585552219351600,6.3443515625,4.106119155883789,-1.3859610557556152,-1.7663400173187256
1722585552229341700,6.354341796875,4.106119155883789,-1.3859610557556152,-1.7663400173187256
1722585552239320800,6.36432080078125,-1.308053970336914,-1.1209800243377686,-0.4807420074939728
1722585552249300000,6.374300048828125,-1.308053970336914,-1.1209800243377686,-0.4807420074939728
1722585552259288600,6.38428857421875,0.2587270140647888,-1.8913379907608032,0.5127140283584595
1722585552269277400,6.39427734375,0.2587270140647888,-1.8913379907608032,0.5127140283584595
1722585552279269600,6.40426953125,1.1253310441970825,-2.1105220317840576,-0.8829709887504578
1722585552289261800,6.41426171875,1.1253310441970825,-2.1105220317840576,-0.8829709887504578
1722585552299244500,6.42424462890625,0.018928000703454018,-2.4098711013793945,-1.0759830474853516
1722585552309227300,6.434227294921875,0.018928000703454018,-2.4098711013793945,-1.0759830474853516
1722585552319219500,6.444219482421875,-1.015010952949524,-2.3907721042633057,-0.0639989972114563
1722585552329211600,6.454211669921875,-1.015010952949524,-2.3907721042633057,-0.0639989972114563
1722585552339181600,6.464181640625,0.5309579968452454,-0.6886529922485352,1.968837022781372
1722585552349151700,6.47415185546875,0.5309579968452454,-0.6886529922485352,1.968837022781372
1722585552359133200,6.48413330078125,-0.08120899647474289,-0.6512219905853271,1.776847004890442
1722585552369114600,6.494114501953125,-0.08120899647474289,-0.6512219905853271,1.776847004890442
1722585552379099000,6.504098876953125,1.099025011062622,1.2680729627609253,-0.05799899995326996
1722585552389083100,6.514083251953125,1.099025011062622,1.2680729627609253,-0.05799899995326996
1722585552399051800,6.5240517578125,1.0494060516357422,2.4677600860595703,1.0067650079727173
1722585552409020400,6.5340205078125,1.0494060516357422,2.4677600860595703,1.0067650079727173
1722585552419010800,6.5440107421875,0.019509000703692436,1.3039309978485107,2.174091100692749
1722585552429001000,6.5540009765625,0.019509000703692436,1.3039309978485107,2.174091100692749
1722585552438979300,6.563979248046875,-1.2124040126800537,0.6667270064353943,0.17859800159931183
1722585552448957700,6.573957763671875,-1.2124040126800537,0.6667270064353943,0.17859800159931183
1722585552458937300,6.583937255859375,0.6316840052604675,-0.37400999665260315,-1.667410969734192
1722585552468917000,6.5939169921875,0.6316840052604675,-0.37400999665260315,-1.667410969734192
1722585552478898400,6.6038984375,0.6905009746551514,-2.016058921813965,-2.7167599201202393
1722585552488879600,6.613879638671875,0.6905009746551514,-2.016058921813965,-2.7167599201202393
1722585552498855400,6.62385546875,-2.7391650676727295,-2.254365921020508,-1.6778759956359863
1722585552508831200,6.633831298828125,-2.7391650676727295,-2.254365921020508,-1.6778759956359863
1722585552518811400,6.643811279296875,-1.0497260093688965,-0.395577996969223,0.05908399820327759
1722585552528791600,6.65379150390625,-1.0497260093688965,-0.395577996969223,0.05908399820327759
1722585552538767600,6.663767578125,1.015720009803772,-0.09484300017356873,0.03458600118756294
1722585552548743400,6.673743408203125,1.015720009803772,-0.09484300017356873,0.03458600118756294
1722585552558735600,6.683735595703125,1.1704620122909546,2.4063880443573,1.0715399980545044
1722585552568728000,6.69372802734375,1.1704620122909546,2.4063880443573,1.0715399980545044
1722585552578707700,6.703707763671875,0.3107239902019501,1.942168951034546,1.4482699632644653
1722585552588687400,6.713687255859375,0.3107239902019501,1.942168951034546,1.4482699632644653
1722585552598656500,6.723656494140625,-1.98014497756958,-0.7597879767417908,1.1411620378494263
1722585552608626000,6.7336259765625,-1.98014497756958,-0.7597879767417908,1.1411620378494263
1722585552618593800,6.74359375,0.12354300171136856,-1.9749699831008911,0.11996900290250778
1722585552628562000,6.75356201171875,0.12354300171136856,-1.9749699831008911,0.11996900290250778
1722585552638553000,6.763552978515625,-0.4048689901828766,-2.759087085723877,-0.5997970104217529
1722585552648544500,6.77354443359375,-0.4048689901828766,-2.759087085723877,-0.5997970104217529
1722585552658526000,6.78352587890625,-2.4283831119537354,-0.6583750247955322,-0.11642800271511078
1722585552668507400,6.79350732421875,-2.4283831119537354,-0.6583750247955322,-0.11642800271511078
1722585552678485800,6.80348583984375,1.976464033126831,1.3738809823989868,1.440453052520752
1722585552688464400,6.81346435546875,1.976464033126831,1.3738809823989868,1.440453052520752
1722585552698434000,6.82343408203125,2.2361159324645996,4.579531192779541,1.4609730243682861
1722585552708403700,6.83340380859375,2.2361159324645996,4.579531192779541,1.4609730243682861
1722585552718382300,6.84338232421875,3.8667891025543213,2.036242961883545,0.6033290028572083
1722585552728361000,6.85336083984375,3.8667891025543213,2.036242961883545,0.6033290028572083
1722585552738354000,6.86335400390625,2.918102979660034,5.064612865447998,-0.40144801139831543
1722585552748347100,6.87334716796875,2.918102979660034,5.064612865447998,-0.40144801139831543
1722585552758330600,6.88333056640625,7.412642955780029,-1.1506099700927734,0.08698700368404388
1722585552768314000,6.893314208984375,7.412642955780029,-1.1506099700927734,0.08698700368404388
1722585552778308600,6.90330859375,-5.383574962615967,-0.8006359934806824,-2.583317995071411
1722585552788303400,6.913303466796875,-5.383574962615967,-0.8006359934806824,-2.583317995071411
1722585552798280200,6.9232802734375,3.4128520488739014,2.673051118850708,-1.3219900131225586
1722585552808257300,6.93325732421875,3.4128520488739014,2.673051118850708,-1.3219900131225586
1722585552818241500,6.943241455078125,1.7969529628753662,3.6232619285583496,-0.4964529871940613
1722585552828225800,6.953225830078125,1.7969529628753662,3.6232619285583496,-0.4964529871940613
1722585552838206500,6.96320654296875,-5.118138790130615,-0.37181198596954346,0.11084400117397308
1722585552848187100,6.973187255859375,-5.118138790130615,-0.37181198596954346,0.11084400117397308
1722585552858167800,6.983167724609375,-1.90618896484375,-0.31915199756622314,0.2983109951019287
1722585552868148200,6.993148193359375,-1.90618896484375,-0.31915199756622314,0.2983109951019287
1722585552878139000,7.003138916015625,-5.112782955169678,-0.8479959964752197,-2.536410093307495
1722585552888129300,7.01312939453125,-5.112782955169678,-0.8479959964752197,-2.536410093307495
1722585552898119000,7.023118896484375,-0.9114930033683777,1.148360013961792,1.3606289625167847
1722585552908108800,7.03310888671875,-0.9114930033683777,1.148360013961792,1.3606289625167847
1722585552918089000,7.0430888671875,3.877197027206421,-1.5983539819717407,2.2626750469207764
1722585552928069400,7.0530693359375,3.877197027206421,-1.5983539819717407,2.2626750469207764
1722585552938037200,7.063037353515625,0.3754670023918152,-1.1082979440689087,-1.1229890584945679
1722585552948005000,7.073005126953125,0.3754670023918152,-1.1082979440689087,-1.1229890584945679
1722585552957972000,7.082971923828125,-3.0096371173858643,-2.005290985107422,-0.510791003704071
1722585552967939000,7.09293896484375,-3.0096371173858643,-2.005290985107422,-0.510791003704071
1722585552977930500,7.102930419921875,-1.9343279600143433,-0.2360299974679947,1.1135950088500977
1722585552987922000,7.112921875,-1.9343279600143433,-0.2360299974679947,1.1135950088500977
1722585552997888300,7.12288818359375,2.120007038116455,1.8232510089874268,0.7155069708824158
1722585553007854800,7.132854736328125,2.120007038116455,1.8232510089874268,0.7155069708824158
1722585553017820000,7.14281982421875,3.095590114593506,1.1730200052261353,0.3157329857349396
1722585553027784700,7.15278466796875,3.095590114593506,1.1730200052261353,0.3157329857349396
1722585553037753300,7.16275341796875,-5.169632911682129,-1.2735190391540527,-0.9951679706573486
1722585553047722200,7.17272216796875,-5.169632911682129,-1.2735190391540527,-0.9951679706573486
1722585553057713000,7.182712890625,1.7370400428771973,-0.30827799439430237,-2.673079013824463
1722585553067703600,7.19270361328125,1.7370400428771973,-0.30827799439430237,-2.673079013824463
1722585553077695200,7.2026953125,2.2749009132385254,0.6496269702911377,-0.33633100986480713
1722585553087687000,7.21268701171875,2.2749009132385254,0.6496269702911377,-0.33633100986480713
1722585553097678300,7.22267822265625,-3.7560338973999023,3.072809934616089,1.4945019483566284
1722585553107670000,7.232669921875,-3.7560338973999023,3.072809934616089,1.4945019483566284
1722585553117665000,7.2426650390625,0.05074099823832512,1.5627700090408325,1.3735049962997437
1722585553127660000,7.252659912109375,0.05074099823832512,1.5627700090408325,1.3735049962997437
1722585553137640700,7.262640625,-1.010794997215271,1.8371119499206543,5.714453220367432
1722585553147621600,7.27262158203125,-1.010794997215271,1.8371119499206543,5.714453220367432
1722585553157599700,7.282599853515625,-1.403743028640747,-0.21751099824905396,1.598721981048584
1722585553167577600,7.29257763671875,-1.403743028640747,-0.21751099824905396,1.598721981048584
1722585553177558300,7.302558349609375,-1.3586020469665527,3.4259181022644043,-9.337021827697754
1722585553187539000,7.3125390625,-1.3586020469665527,3.4259181022644043,-9.337021827697754
1722585553197518000,7.32251806640625,1.724411964416504,1.3826169967651367,-9.093786239624023
1722585553207497200,7.332497314453125,1.724411964416504,1.3826169967651367,-9.093786239624023
1722585553217485000,7.342485107421875,1.2011829614639282,1.8915079832077026,3.2908260822296143
1722585553227472600,7.35247265625,1.2011829614639282,1.8915079832077026,3.2908260822296143
1722585553237464300,7.36246435546875,7.985799789428711,2.928459882736206,4.426976203918457
1722585553247456000,7.3724560546875,7.985799789428711,2.928459882736206,4.426976203918457
1722585553257449200,7.38244921875,3.8972949981689453,-0.5699080228805542,0.4632070064544678
1722585553267442200,7.392442138671875,3.8972949981689453,-0.5699080228805542,0.4632070064544678
1722585553277429200,7.40242919921875,-2.303148031234741,-0.04324600100517273,-2.5561881065368652
1722585553287416000,7.412416015625,-2.303148031234741,-0.04324600100517273,-2.5561881065368652
1722585553297415400,7.42241552734375,-5.369844913482666,-0.08374500274658203,-2.4298479557037354
1722585553307414500,7.43241455078125,-5.369844913482666,-0.08374500274658203,-2.4298479557037354
1722585553317387000,7.442386962890625,2.6837410926818848,-3.3642609119415283,5.133241176605225
1722585553327359700,7.45235986328125,2.6837410926818848,-3.3642609119415283,5.133241176605225
1722585553337359000,7.462359130859375,0.8998889923095703,-0.5194159746170044,2.7140519618988037
1722585553347358500,7.4723583984375,0.8998889923095703,-0.5194159746170044,2.7140519618988037
1722585553357342700,7.4823427734375,-2.613097906112671,1.2087379693984985,0.6314290165901184
1722585553367327000,7.492326904296875,-2.613097906112671,1.2087379693984985,0.6314290165901184
1722585553377325800,7.502325927734375,-1.8758889436721802,2.7547719478607178,3.463918924331665
1722585553387324400,7.512324462890625,-1.8758889436721802,2.7547719478607178,3.463918924331665
1722585553397308700,7.52230859375,-0.3137100040912628,-0.7874150276184082,-0.061041999608278275
1722585553407292700,7.532292724609375,-0.3137100040912628,-0.7874150276184082,-0.061041999608278275
1722585553417285600,7.54228564453125,-0.44916999340057373,-1.4230610132217407,-2.86865496635437
1722585553427278300,7.5522783203125,-0.44916999340057373,-1.4230610132217407,-2.86865496635437
1722585553437269500,7.56226953125,-2.9419798851013184,-0.39799800515174866,0.8426700234413147
1722585553447260400,7.572260498046875,-2.9419798851013184,-0.39799800515174866,0.8426700234413147
1722585553457248500,7.58224853515625,1.103361964225769,-1.1090450286865234,1.0169130563735962
1722585553467236400,7.592236328125,1.103361964225769,-1.1090450286865234,1.0169130563735962
1722585553477226800,7.602226806640625,4.258382797241211,1.0658700466156006,1.344504952430725
1722585553487217200,7.612217041015625,4.258382797241211,1.0658700466156006,1.344504952430725
1722585553497205500,7.62220556640625,-3.7660889625549316,-1.1071850061416626,-0.2296680063009262
1722585553507193900,7.63219384765625,-3.7660889625549316,-1.1071850061416626,-0.2296680063009262
1722585553517186000,7.64218603515625,4.689355850219727,-1.129639983177185,-1.7313820123672485
1722585553527178200,7.65217822265625,4.689355850219727,-1.129639983177185,-1.7313820123672485
1722585553537165800,7.662165771484375,4.37578010559082,2.667541980743408,0.3353939950466156
1722585553547153400,7.6721533203125,4.37578010559082,2.667541980743408,0.3353939950466156
1722585553557131300,7.68213134765625,1.9343169927597046,0.7737219929695129,2.1899819374084473
1722585553567109000,7.692109130859375,1.9343169927597046,0.7737219929695129,2.1899819374084473
1722585553577098500,7.702098388671875,-2.7785110473632812,3.1320130825042725,-0.24604299664497375
1722585553587087600,7.712087646484375,-2.7785110473632812,3.1320130825042725,-0.24604299664497375
1722585553597064400,7.722064453125,-5.554074764251709,1.4945650100708008,-1.9879169464111328
1722585553607041300,7.732041259765625,-5.554074764251709,1.4945650100708008,-1.9879169464111328
1722585553617025800,7.74202587890625,0.9062020182609558,1.0442860126495361,-1.7431139945983887
1722585553627010000,7.752010009765625,0.9062020182609558,1.0442860126495361,-1.7431139945983887
1722585553636979000,7.76197900390625,1.595810055732727,-0.639074981212616,-0.7817090153694153
1722585553646947600,7.771947509765625,1.595810055732727,-0.639074981212616,-0.7817090153694153
1722585553656916500,7.78191650390625,-4.469642162322998,-1.0860140323638916,-2.0129709243774414
1722585553666885400,7.791885498046875,-4.469642162322998,-1.0860140323638916,-2.0129709243774414
1722585553676864800,7.80186474609375,-0.23672300577163696,-0.6805800199508667,-2.960395097732544
1722585553686844000,7.811843994140625,-0.23672300577163696,-0.6805800199508667,-2.960395097732544
1722585553696824000,7.821823974609375,0.921019971370697,-0.6323660016059875,-0.5306910276412964
1722585553706804200,7.83180419921875,0.921019971370697,-0.6323660016059875,-0.5306910276412964
1722585553716781800,7.84178173828125,-1.2133090496063232,-0.6337640285491943,0.4953620135784149
1722585553726759200,7.85175927734375,-1.2133090496063232,-0.6337640285491943,0.4953620135784149
1722585553736736800,7.86173681640625,-1.2985819578170776,0.08037800341844559,1.7011090517044067
1722585553746714000,7.871714111328125,-1.2985819578170776,0.08037800341844559,1.7011090517044067
1722585553756704000,7.8817041015625,1.5448249578475952,1.4772690534591675,1.3372780084609985
1722585553766694000,7.89169384765625,1.5448249578475952,1.4772690534591675,1.3372780084609985
1722585553776676600,7.901676513671875,-1.4937219619750977,0.12220499664545059,-1.7646499872207642
1722585553786659600,7.91165966796875,-1.4937219619750977,0.12220499664545059,-1.7646499872207642
1722585553796639500,7.921639404296875,0.8076220154762268,0.7288470268249512,-1.2982490062713623
1722585553806619400,7.931619384765625,0.8076220154762268,0.7288470268249512,-1.2982490062713623
1722585553816588500,7.941588623046875,-2.1395061016082764,-1.258020043373108,0.18807999789714813
1722585553826557400,7.951557373046875,-2.1395061016082764,-1.258020043373108,0.18807999789714813
1722585553836526800,7.96152685546875,-0.7656159996986389,-0.741765022277832,-1.0875170230865479
1722585553846496300,7.971496337890625,-0.7656159996986389,-0.741765022277832,-1.0875170230865479
1722585553856486100,7.981486083984375,1.8291480541229248,-0.8353490233421326,-1.7809749841690063
1722585553866476000,7.99147607421875,1.8291480541229248,-0.8353490233421326,-1.7809749841690063
1722585553876466400,8.001466552734374,0.48987099528312683,-0.12934699654579163,-1.1531579494476318
1722585553886457000,8.01145703125,0.48987099528312683,-0.12934699654579163,-1.1531579494476318
1722585553896446200,8.0214462890625,-0.3254440128803253,-1.1492300033569336,-0.7590060234069824
1722585553906435600,8.031435546875,-0.3254440128803253,-1.1492300033569336,-0.7590060234069824
1722585553916405000,8.041405029296875,-1.7759710550308228,-0.8250960111618042,-0.26862001419067383
1722585553926374400,8.05137451171875,-1.7759710550308228,-0.8250960111618042,-0.26862001419067383
1722585553936354600,8.0613544921875,-0.46984899044036865,0.05428599938750267,-0.6386740207672119
1722585553946334700,8.071334716796875,-0.46984899044036865,0.05428599938750267,-0.6386740207672119
1722585553956323300,8.0813232421875,0.13697700202465057,0.6802120208740234,-1.0874630212783813
1722585553966312000,8.09131201171875,0.13697700202465057,0.6802120208740234,-1.0874630212783813
1722585553976291600,8.10129150390625,0.518464982509613,0.5108699798583984,-1.239421010017395
1722585553986271200,8.111271240234375,0.518464982509613,0.5108699798583984,-1.239421010017395
1722585553996252000,8.121251953125,-0.017311999574303627,0.6537420153617859,1.0439939498901367
1722585554006232600,8.131232666015626,-0.017311999574303627,0.6537420153617859,1.0439939498901367
1722585554016200700,8.14120068359375,-1.0074609518051147,-0.9446660280227661,1.621683955192566
1722585554026168800,8.1511689453125,-1.0074609518051147,-0.9446660280227661,1.621683955192566
1722585554036158000,8.161157958984376,-2.92878794670105,-0.665690004825592,-1.1618880033493042
1722585554046146800,8.171146728515625,-2.92878794670105,-0.665690004825592,-1.1618880033493042
1722585554056125700,8.181125732421876,-0.4447590112686157,1.3290770053863525,-0.2886179983615875
1722585554066104600,8.1911044921875,-0.4447590112686157,1.3290770053863525,-0.2886179983615875
1722585554076077300,8.201077392578124,-1.3856359720230103,-0.06538300216197968,1.182191014289856
1722585554086049800,8.2110498046875,-1.3856359720230103,-0.06538300216197968,1.182191014289856
1722585554096037000,8.221037109375,-1.5132269859313965,-0.4507400095462799,-0.20506100356578827
1722585554106024400,8.2310244140625,-1.5132269859313965,-0.4507400095462799,-0.20506100356578827
1722585554115998700,8.240998779296875,1.0247739553451538,1.6717979907989502,0.3639320135116577
1722585554125973200,8.25097314453125,1.0247739553451538,1.6717979907989502,0.3639320135116577
1722585554135965200,8.260965087890625,-1.396270990371704,0.8054850101470947,0.017980000004172325
1722585554145957000,8.27095703125,-1.396270990371704,0.8054850101470947,0.017980000004172325
1722585554155936000,8.28093603515625,-1.0481810569763184,0.17439299821853638,-1.2460930347442627
1722585554165914600,8.29091455078125,-1.0481810569763184,0.17439299821853638,-1.2460930347442627
1722585554175883300,8.30088330078125,1.2367810010910034,0.32517099380493164,-0.45824798941612244
1722585554185852000,8.310851806640626,1.2367810010910034,0.32517099380493164,-0.45824798941612244
1722585554195839500,8.320839599609375,-2.309842109680176,-1.5316139459609985,0.2624419927597046
1722585554205827000,8.3308271484375,-2.309842109680176,-1.5316139459609985,0.2624419927597046
1722585554215807500,8.340807373046875,-0.5331979990005493,-0.40506500005722046,1.8251539468765259
1722585554225787600,8.35078759765625,-0.5331979990005493,-0.40506500005722046,1.8251539468765259
1722585554235767000,8.36076708984375,1.4570380449295044,-0.4251680076122284,2.335581064224243
1722585554245746700,8.37074658203125,1.4570380449295044,-0.4251680076122284,2.335581064224243
1722585554255716600,8.380716552734375,-1.4283159971237183,0.28299498558044434,0.704043984413147
1722585554265686500,8.3906865234375,-1.4283159971237183,0.28299498558044434,0.704043984413147
1722585554275653400,8.4006533203125,-1.5759170055389404,0.05802299827337265,0.578902006149292
1722585554285620200,8.4106201171875,-1.5759170055389404,0.05802299827337265,0.578902006149292
1722585554295591200,8.420591064453125,1.2896050214767456,1.2275769710540771,2.3337581157684326
1722585554305561900,8.430561767578125,1.2896050214767456,1.2275769710540771,2.3337581157684326
1722585554315552500,8.440552490234374,-1.6594300270080566,-0.5778999924659729,0.035624001175165176
1722585554325543400,8.45054345703125,-1.6594300270080566,-0.5778999924659729,0.035624001175165176
1722585554335543300,8.460543212890625,-1.9374239444732666,-0.5977820158004761,-1.6835589408874512
1722585554345505800,8.470505859375,-1.2108230590820312,-0.7076429724693298,-0.6077110171318054
1722585554355468000,8.480468017578126,-1.2108230590820312,-0.7076429724693298,-0.6077110171318054
1722585554365443300,8.490443359375,-1.9073259830474854,-1.7238819599151611,0.1712779998779297
1722585554375418600,8.500418701171874,-1.9073259830474854,-1.7238819599151611,0.1712779998779297
1722585554385407700,8.51040771484375,-0.9769750237464905,2.904486894607544,0.3921400010585785
1722585554395397000,8.520397216796875,-0.9769750237464905,2.904486894607544,0.3921400010585785
1722585554405397000,8.53039697265625,-2.4546289443969727,-0.2728700041770935,-15.832619667053223
1722585554415380500,8.54038037109375,0.7910829782485962,0.5873180031776428,-12.930442810058594
1722585554425364000,8.550364013671874,0.7910829782485962,0.5873180031776428,-12.930442810058594
1722585554435353300,8.560353271484376,8.789719581604004,4.940547943115234,6.383616924285889
1722585554445342700,8.5703427734375,8.789719581604004,4.940547943115234,6.383616924285889
1722585554455320300,8.5803203125,-3.8217129707336426,2.3901689052581787,11.297776222229004
1722585554465298000,8.5902978515625,-3.8217129707336426,2.3901689052581787,11.297776222229004
1722585554475290400,8.600290283203124,-2.032689094543457,0.96909099817276,2.729546070098877
1722585554485283000,8.610282958984374,-2.032689094543457,0.96909099817276,2.729546070098877
1722585554495260700,8.6202607421875,-2.706902027130127,-2.3138930797576904,-2.6970040798187256
1722585554505238500,8.630238525390626,-2.706902027130127,-2.3138930797576904,-2.6970040798187256
1722585554515225300,8.640225341796874,-5.084065914154053,-7.812045097351074,7.812355041503906
1722585554525212400,8.65021240234375,-5.084065914154053,-7.812045097351074,7.812355041503906
1722585554535201300,8.660201171875,-8.380367279052734,-2.3310530185699463,12.890008926391602
1722585554545190400,8.6701904296875,-8.380367279052734,-2.3310530185699463,12.890008926391602
1722585554555168000,8.68016796875,-11.363627433776855,-0.7590240240097046,10.106030464172363
1722585554565145900,8.690145751953125,-11.363627433776855,-0.7590240240097046,10.106030464172363
1722585554575136500,8.700136474609375,-0.6205360293388367,-3.389112949371338,-2.2276999950408936
1722585554585127200,8.710127197265624,-0.6205360293388367,-3.389112949371338,-2.2276999950408936
1722585554595117800,8.720117919921876,-7.775387763977051,0.3568600118160248,-9.252195358276367
1722585554605108200,8.730108154296875,-7.775387763977051,0.3568600118160248,-9.252195358276367
1722585554615083500,8.74008349609375,-1.4238009452819824,0.46667200326919556,-3.037463903427124
1722585554625058800,8.750058837890625,-1.4238009452819824,0.46667200326919556,-3.037463903427124
1722585554635024100,8.760024169921875,0.392412006855011,-2.271298885345459,-2.6819489002227783
1722585554644989200,8.7699892578125,0.392412006855011,-2.271298885345459,-2.6819489002227783
1722585554654970600,8.779970703125,0.19412299990653992,1.5264209508895874,-7.694325923919678
1722585554664952000,8.7899521484375,0.19412299990653992,1.5264209508895874,-7.694325923919678
1722585554674933500,8.79993359375,-0.2237280011177063,-0.7018139958381653,-6.5791449546813965
1722585554684914700,8.809914794921875,-0.2237280011177063,-0.7018139958381653,-6.5791449546813965
1722585554694896400,8.819896484375,0.08547099679708481,-1.1548370122909546,-2.2441070079803467
1722585554704878000,8.829878173828124,0.08547099679708481,-1.1548370122909546,-2.2441070079803467
1722585554714858200,8.839858154296875,7.093679904937744,-0.9897760152816772,0.809374988079071
1722585554724838400,8.84983837890625,7.093679904937744,-0.9897760152816772,0.809374988079071
1722585554734819600,8.859819580078126,7.970873832702637,-1.5827419757843018,1.638355016708374
1722585554744800800,8.86980078125,7.970873832702637,-1.5827419757843018,1.638355016708374
1722585554754779400,8.879779296875,-2.385895013809204,-0.011373000219464302,3.5585649013519287
1722585554764758000,8.889758056640625,-2.385895013809204,-0.011373000219464302,3.5585649013519287
1722585554774748200,8.899748046875,-2.142159938812256,-0.588545024394989,3.6388518810272217
1722585554784738000,8.909738037109374,-2.142159938812256,-0.588545024394989,3.6388518810272217
1722585554794707200,8.919707275390625,0.6401010155677795,-0.8853009939193726,3.6715540885925293
1722585554804676600,8.929676513671875,0.6401010155677795,-0.8853009939193726,3.6715540885925293
1722585554814654200,8.939654296875,-0.6414390206336975,-0.736735999584198,2.8738949298858643
1722585554824631800,8.9496318359375,-0.6414390206336975,-0.736735999584198,2.8738949298858643
1722585554834598100,8.95959814453125,-3.623979091644287,-0.5093960165977478,1.262565016746521
1722585554844564500,8.969564453125,-3.623979091644287,-0.5093960165977478,1.262565016746521
1722585554854543600,8.979543701171876,4.652778148651123,-0.9141409993171692,-0.17205600440502167
1722585554864522800,8.989522705078125,4.652778148651123,-0.9141409993171692,-0.17205600440502167
1722585554874504200,8.999504150390624,-0.4609610140323639,-1.6739829778671265,-1.342257022857666
1722585554884485600,9.009485595703126,-0.4609610140323639,-1.6739829778671265,-1.342257022857666
1722585554894462500,9.01946240234375,-2.148698091506958,-1.1524070501327515,-2.500576972961426
1722585554904439300,9.029439208984375,-2.148698091506958,-1.1524070501327515,-2.500576972961426
1722585554914406100,9.03940625,0.37132200598716736,-2.729928970336914,-1.5757839679718018
1722585554924373000,9.049373046875,0.37132200598716736,-2.729928970336914,-1.5757839679718018
1722585554934352600,9.0593525390625,1.9141210317611694,-1.6866220235824585,-0.8082619905471802
1722585554944332300,9.069332275390625,1.9141210317611694,-1.6866220235824585,-0.8082619905471802
1722585554954324700,9.07932470703125,-2.684767007827759,-1.8914259672164917,-0.33283698558807373
1722585554964317200,9.089317138671875,-2.684767007827759,-1.8914259672164917,-0.33283698558807373
1722585554974307600,9.0993076171875,1.2862590551376343,-1.8728430271148682,0.12270700186491013
1722585554984298200,9.10929833984375,1.2862590551376343,-1.8728430271148682,0.12270700186491013
1722585554994276000,9.119276123046875,2.730954885482788,-2.0805981159210205,1.28964102268219
1722585555004254000,9.12925390625,2.730954885482788,-2.0805981159210205,1.28964102268219
1722585555014232000,9.139232177734375,1.1209579706192017,-1.1962729692459106,1.1941380500793457
1722585555024210200,9.149210205078125,1.1209579706192017,-1.1962729692459106,1.1941380500793457
1722585555034189800,9.15918994140625,-0.14276400208473206,-0.6473010182380676,1.2786259651184082
1722585555044169500,9.16916943359375,-0.14276400208473206,-0.6473010182380676,1.2786259651184082
1722585555054157000,9.179156982421874,-3.733738899230957,-7.669045925140381,-0.06964399665594101
1722585555064145000,9.189144775390625,-3.733738899230957,-7.669045925140381,-0.06964399665594101
1722585555074123300,9.199123291015624,-3.2476260662078857,3.998581886291504,-0.31516098976135254
1722585555084101400,9.209101318359375,-3.2476260662078857,3.998581886291504,-0.31516098976135254
1722585555094078700,9.21907861328125,-16.468524932861328,1.501891016960144,-0.3858740031719208
1722585555104055800,9.229055908203126,-16.468524932861328,1.501891016960144,-0.3858740031719208
1722585555114038300,9.239038330078126,-16.19318389892578,-2.9757399559020996,-1.8165169954299927
1722585555124020700,9.249020751953125,-16.19318389892578,-2.9757399559020996,-1.8165169954299927
1722585555134012700,9.2590126953125,8.685483932495117,-1.6631089448928833,-0.31130900979042053
1722585555144004600,9.269004638671875,8.685483932495117,-1.6631089448928833,-0.31130900979042053
1722585555153982700,9.278982666015626,12.097983360290527,-0.3637939989566803,1.9643590450286865
1722585555163960800,9.2889609375,12.097983360290527,-0.3637939989566803,1.9643590450286865
1722585555173935400,9.298935302734375,-1.9254759550094604,0.7268589735031128,-0.1205969974398613
1722585555183909600,9.30890966796875,-1.9254759550094604,0.7268589735031128,-0.1205969974398613
1722585555193900800,9.31890087890625,4.107886791229248,-0.43810901045799255,-1.8076319694519043
1722585555203891700,9.3288916015625,4.107886791229248,-0.43810901045799255,-1.8076319694519043
1722585555213882400,9.33888232421875,5.440329074859619,0.5094220042228699,-1.084298014640808
1722585555223872800,9.348872802734375,5.440329074859619,0.5094220042228699,-1.084298014640808
1722585555233852700,9.358852783203124,3.237907886505127,1.5624370574951172,1.6732970476150513
1722585555243832600,9.36883251953125,3.237907886505127,1.5624370574951172,1.6732970476150513
1722585555253825300,9.3788251953125,9.930477142333984,0.8842179775238037,0.019226999953389168
1722585555263818000,9.38881787109375,9.930477142333984,0.8842179775238037,0.019226999953389168
1722585555273783800,9.39878369140625,6.106113910675049,5.379188060760498,0.9054080247879028
1722585555283749600,9.40874951171875,6.106113910675049,5.379188060760498,0.9054080247879028
1722585555293717500,9.418717529296876,3.6579580307006836,3.6925270557403564,0.20705600082874298
1722585555303685000,9.42868505859375,3.6579580307006836,3.6925270557403564,0.20705600082874298
1722585555313661700,9.43866162109375,7.657442092895508,6.54237699508667,-0.661653995513916
1722585555323638000,9.448637939453125,7.657442092895508,6.54237699508667,-0.661653995513916
1722585555333603000,9.45860302734375,3.314863920211792,5.050928115844727,0.055688999593257904
1722585555343568100,9.468568115234374,3.314863920211792,5.050928115844727,0.055688999593257904
1722585555353547800,9.4785478515625,3.142458915710449,5.839532852172852,0.0788780003786087
1722585555363527400,9.48852734375,3.142458915710449,5.839532852172852,0.0788780003786087
1722585555373512000,9.498511962890625,1.0307509899139404,3.649405002593994,-1.0217100381851196
1722585555383496400,9.508496337890625,1.0307509899139404,3.649405002593994,-1.0217100381851196
1722585555393479400,9.5184794921875,-1.4456299543380737,3.2422449588775635,-1.5643420219421387
1722585555403462100,9.528462158203125,-1.4456299543380737,3.2422449588775635,-1.5643420219421387
1722585555413447400,9.538447509765625,-6.65150785446167,-5.951242923736572,1.4600750207901
1722585555423433000,9.548432861328125,-6.65150785446167,-5.951242923736572,1.4600750207901
1722585555433416400,9.55841650390625,-9.891643524169922,-5.255258083343506,-0.6940410137176514
1722585555443400000,9.56839990234375,-9.891643524169922,-5.255258083343506,-0.6940410137176514
1722585555453369000,9.578369140625,-2.94301700592041,-0.5879650115966797,2.6063520908355713
1722585555463338200,9.588338134765625,-2.94301700592041,-0.5879650115966797,2.6063520908355713
1722585555473327000,9.5983271484375,-12.803204536437988,-5.532504081726074,-1.2664250135421753
1722585555483316000,9.60831591796875,-12.803204536437988,-5.532504081726074,-1.2664250135421753
1722585555493293600,9.61829345703125,-5.865118026733398,-2.748176097869873,-1.4475599527359009
1722585555503271400,9.628271484375,-5.865118026733398,-2.748176097869873,-1.4475599527359009
1722585555513248800,9.638248779296875,4.377344131469727,-5.838605880737305,4.534050941467285
1722585555523226400,9.648226318359375,4.377344131469727,-5.838605880737305,4.534050941467285
1722585555533214000,9.6582138671875,-3.200340986251831,-3.9026939868927,0.8784629702568054
1722585555543201500,9.668201416015625,-3.200340986251831,-3.9026939868927,0.8784629702568054
1722585555553181000,9.678180908203124,-8.153915405273438,-2.5831079483032227,0.7522339820861816
1722585555563160000,9.68816015625,-8.153915405273438,-2.5831079483032227,0.7522339820861816
1722585555573148400,9.6981484375,2.3809010982513428,-1.0245850086212158,0.952148973941803
1722585555583136500,9.708136474609375,2.3809010982513428,-1.0245850086212158,0.952148973941803
1722585555593129700,9.718129638671876,0.7807270288467407,-0.01652899943292141,1.274507999420166
1722585555603122700,9.728122802734376,0.7807270288467407,-0.01652899943292141,1.274507999420166
1722585555613113000,9.738113037109375,-0.14957499504089355,-1.0107619762420654,-0.3719879984855652
1722585555623103500,9.748103515625,-0.14957499504089355,-1.0107619762420654,-0.3719879984855652
1722585555633095000,9.758094970703125,-0.9947760105133057,2.4797520637512207,0.07548599690198898
1722585555643086000,9.768086181640625,-0.9947760105133057,2.4797520637512207,0.07548599690198898
1722585555653076500,9.778076416015624,0.18083399534225464,3.6006600856781006,-0.10423699766397476
1722585555663067000,9.78806689453125,0.18083399534225464,3.6006600856781006,-0.10423699766397476
1722585555673046300,9.79804638671875,2.503101110458374,2.430130958557129,-1.5924259424209595
1722585555683026000,9.80802587890625,2.503101110458374,2.430130958557129,-1.5924259424209595
1722585555693003800,9.818003662109374,0.17273899912834167,3.835066080093384,-2.0351181030273438
1722585555702981600,9.827981689453125,0.17273899912834167,3.835066080093384,-2.0351181030273438
1722585555712963000,9.837963134765625,-3.625053882598877,2.173085927963257,-2.530695915222168
1722585555722944800,9.84794482421875,-3.625053882598877,2.173085927963257,-2.530695915222168
1722585555732912400,9.857912353515625,1.7934730052947998,2.597071886062622,-1.8709900379180908
1722585555742879700,9.867879638671875,1.7934730052947998,2.597071886062622,-1.8709900379180908
1722585555752871200,9.87787109375,-0.06550999730825424,1.0649349689483643,-1.5016800165176392
1722585555762862600,9.887862548828124,-0.06550999730825424,1.0649349689483643,-1.5016800165176392
1722585555772852200,9.897852294921876,-5.1063737869262695,0.7671809792518616,-0.046911999583244324
1722585555782841900,9.907841796875,-5.1063737869262695,0.7671809792518616,-0.046911999583244324
1722585555792831500,9.91783154296875,-0.46102601289749146,-0.49777600169181824,2.0545780658721924
1722585555802821000,9.927821044921876,-0.46102601289749146,-0.49777600169181824,2.0545780658721924
1722585555812784600,9.93778466796875,0.8208529949188232,0.005222000181674957,1.9391039609909058
1722585555822748200,9.947748046875,0.8208529949188232,0.005222000181674957,1.9391039609909058
1722585555832723200,9.95772314453125,-1.381173014640808,0.6688460111618042,0.5454509854316711
1722585555842698200,9.9676982421875,-1.381173014640808,0.6688460111618042,0.5454509854316711
1722585555852664000,9.9776640625,-0.10960300266742706,-1.0205600261688232,1.0847400426864624
1722585555862630100,9.987630126953125,-0.10960300266742706,-1.0205600261688232,1.0847400426864624
1722585555872617200,9.9976171875,0.28084099292755127,-0.8810240030288696,1.909227967262268
1722585555882604500,10.0076044921875,0.28084099292755127,-0.8810240030288696,1.909227967262268
1722585555892592000,10.017592041015625,-0.6868320107460022,-1.2054710388183594,0.6982259750366211
1722585555902580000,10.027580078125,-0.6868320107460022,-1.2054710388183594,0.6982259750366211
1722585555912569000,10.037569091796875,-1.0164309740066528,-1.3395270109176636,0.5034540295600891
1722585555922558200,10.04755810546875,-1.0164309740066528,-1.3395270109176636,0.5034540295600891
1722585555932546000,10.057546142578126,-0.023957999423146248,-1.2275819778442383,0.5024330019950867
1722585555942534100,10.0675341796875,-0.023957999423146248,-1.2275819778442383,0.5024330019950867
1722585555952523000,10.07752294921875,0.2546609938144684,-0.2584800124168396,0.38423898816108704
1722585555962512100,10.08751220703125,0.2546609938144684,-0.2584800124168396,0.38423898816108704
1722585555972480300,10.097480224609376,-1.0555700063705444,-0.538411021232605,0.1078450009226799
1722585555982448400,10.107448486328124,-1.0555700063705444,-0.538411021232605,0.1078450009226799
1722585555992426500,10.117426513671875,0.27301499247550964,-0.13862000405788422,0.2321760058403015
1722585556002404600,10.127404541015625,0.27301499247550964,-0.13862000405788422,0.2321760058403015
1722585556012370000,10.137369873046875,0.575534999370575,0.18248499929904938,-0.11493100225925446
1722585556022335200,10.147335205078125,0.575534999370575,0.18248499929904938,-0.11493100225925446
1722585556032326700,10.15732666015625,-0.7623630166053772,0.26662498712539673,-0.44516798853874207
1722585556042318300,10.167318359375,-0.7623630166053772,0.26662498712539673,-0.44516798853874207
1722585556052308200,10.17730810546875,0.2808539867401123,0.9476400017738342,0.4729819893836975
1722585556062298400,10.18729833984375,0.2808539867401123,0.9476400017738342,0.4729819893836975
1722585556072288800,10.197288818359375,0.8691549897193909,-0.1610500067472458,-0.14397799968719482
1722585556082279200,10.207279052734375,0.8691549897193909,-0.1610500067472458,-0.14397799968719482
1722585556092247800,10.217247802734375,0.0082590002566576,0.06333599984645844,-0.5176169872283936
1722585556102216400,10.227216552734374,0.0082590002566576,0.06333599984645844,-0.5176169872283936
1722585556112195600,10.237195556640625,0.17061300575733185,1.316902995109558,-0.04626699909567833
1722585556122174500,10.247174560546876,0.17061300575733185,1.316902995109558,-0.04626699909567833
1722585556132157000,10.257156982421876,1.8041729927062988,0.3857559859752655,-0.33427199721336365
1722585556142139600,10.2671396484375,1.8041729927062988,0.3857559859752655,-0.33427199721336365
1722585556152131800,10.2771318359375,0.5821490287780762,0.7218430042266846,-0.2229509949684143
1722585556162123800,10.287123779296875,0.5821490287780762,0.7218430042266846,-0.2229509949684143
1722585556172104200,10.297104248046875,-1.7170710563659668,0.6544780135154724,-0.34931498765945435
1722585556182084600,10.307084716796876,-1.7170710563659668,0.6544780135154724,-0.34931498765945435
1722585556192062200,10.317062255859375,0.7087029814720154,0.11581200361251831,0.16837699711322784
1722585556202039600,10.32703955078125,0.7087029814720154,0.11581200361251831,0.16837699711322784
1722585556212023600,10.3370234375,0.6196529865264893,-0.357697993516922,0.11914800107479095
1722585556222007600,10.347007568359375,0.6196529865264893,-0.357697993516922,0.11914800107479095
1722585556231989500,10.356989501953125,-0.2458910048007965,-0.9806699752807617,0.06152600049972534
1722585556241971500,10.366971435546875,-0.2458910048007965,-0.9806699752807617,0.06152600049972534
1722585556251936500,10.3769365234375,-0.0852700024843216,2.2399189472198486,0.45576000213623047
1722585556261901600,10.386901611328126,-0.0852700024843216,2.2399189472198486,0.45576000213623047
1722585556271893000,10.39689306640625,2.508152961730957,-0.9921910166740417,-1.9436160326004028
1722585556281884400,10.406884521484375,2.508152961730957,-0.9921910166740417,-1.9436160326004028
1722585556291872000,10.4168720703125,5.020870208740234,1.3136999607086182,3.319103956222534
1722585556301859600,10.426859619140625,5.020870208740234,1.3136999607086182,3.319103956222534
1722585556311849700,10.436849609375,1.2495379447937012,1.3360430002212524,8.659643173217773
1722585556321839900,10.44683984375,1.2495379447937012,1.3360430002212524,8.659643173217773
1722585556331814400,10.456814453125,0.6623550057411194,1.0009419918060303,5.572782039642334
1722585556341789200,10.4667890625,0.6623550057411194,1.0009419918060303,5.572782039642334
1722585556351771400,10.476771484375,-2.4331390857696533,-1.9535399675369263,-1.9254839420318604
1722585556361753300,10.48675341796875,-2.4331390857696533,-1.9535399675369263,-1.9254839420318604
1722585556371733800,10.496733642578125,-3.455359935760498,-2.9634530544281006,-1.4135169982910156
1722585556381714200,10.506714111328124,-3.455359935760498,-2.9634530544281006,-1.4135169982910156
1722585556391692000,10.516692138671875,-4.0598249435424805,-1.9027420282363892,-2.7935140132904053
1722585556401670000,10.526669921875,-4.0598249435424805,-1.9027420282363892,-2.7935140132904053
1722585556411646000,10.53664599609375,-3.060431957244873,-1.9845960140228271,-4.234515190124512
1722585556421622000,10.5466220703125,-3.060431957244873,-1.9845960140228271,-4.234515190124512
1722585556431596500,10.556596435546876,-1.6112639904022217,-0.8800470232963562,-7.609179973602295
1722585556441571300,10.5665712890625,-1.6112639904022217,-0.8800470232963562,-7.609179973602295
1722585556451552800,10.576552734375,-3.779167890548706,0.5163710117340088,-8.049103736877441
1722585556461534200,10.5865341796875,-3.779167890548706,0.5163710117340088,-8.049103736877441
1722585556471510000,10.596510009765625,-1.0521769523620605,-0.8664990067481995,-6.526480197906494
1722585556481485800,10.60648583984375,-1.0521769523620605,-0.8664990067481995,-6.526480197906494
1722585556491463000,10.616462890625,3.329440116882324,2.7503490447998047,-3.478940963745117
1722585556501440000,10.62643994140625,3.329440116882324,2.7503490447998047,-3.478940963745117
1722585556511428400,10.636428466796875,4.1429009437561035,2.6118059158325195,-2.7454850673675537
1722585556521416400,10.64641650390625,4.1429009437561035,2.6118059158325195,-2.7454850673675537
1722585556531394600,10.65639453125,-1.0339380502700806,1.9007569551467896,-0.8153839707374573
1722585556541373000,10.666373046875,-1.0339380502700806,1.9007569551467896,-0.8153839707374573
1722585556551362600,10.676362548828125,5.029687881469727,3.17677903175354,2.5329229831695557
1722585556561352400,10.6863525390625,5.029687881469727,3.17677903175354,2.5329229831695557
1722585556571330800,10.696330810546876,-0.3127270042896271,2.999994993209839,5.025028228759766
1722585556581309200,10.70630908203125,-0.3127270042896271,2.999994993209839,5.025028228759766
1722585556591299600,10.716299560546876,5.888261795043945,4.269509792327881,3.5296740531921387
1722585556601290000,10.7262900390625,5.888261795043945,4.269509792327881,3.5296740531921387
1722585556611268000,10.73626806640625,0.7751830220222473,4.119402885437012,1.4955389499664307
1722585556621246500,10.74624658203125,0.7751830220222473,4.119402885437012,1.4955389499664307
1722585556631237400,10.7562373046875,5.555264949798584,-1.5478620529174805,15.938398361206055
1722585556641228300,10.766228271484374,5.555264949798584,-1.5478620529174805,15.938398361206055
1722585556651213300,10.77621337890625,5.797061920166016,0.9910899996757507,9.477672576904297
1722585556661198300,10.7861982421875,5.797061920166016,0.9910899996757507,9.477672576904297
1722585556671185700,10.796185546875,9.80741024017334,-0.9218530058860779,4.812058925628662
1722585556681173200,10.80617333984375,9.80741024017334,-0.9218530058860779,4.812058925628662
1722585556691159000,10.816158935546875,13.093666076660156,1.0125709772109985,-1.884248971939087
1722585556701144800,10.826144775390626,13.093666076660156,1.0125709772109985,-1.884248971939087
1722585556711131400,10.83613134765625,-15.2504301071167,-0.026704000309109688,3.672435998916626
1722585556721118000,10.846117919921875,-15.2504301071167,-0.026704000309109688,3.672435998916626
1722585556731107600,10.856107666015625,-19.27090072631836,-0.6072580218315125,1.0989450216293335
1722585556741097200,10.86609716796875,-19.27090072631836,-0.6072580218315125,1.0989450216293335
1722585556751089400,10.87608935546875,3.248159885406494,-7.1084489822387695,-8.037169456481934
1722585556761081600,10.88608154296875,3.248159885406494,-7.1084489822387695,-8.037169456481934
1722585556771063800,10.896063720703125,7.355536937713623,-6.025683879852295,-9.146832466125488
1722585556781046000,10.9060458984375,7.355536937713623,-6.025683879852295,-9.146832466125488
1722585556791025000,10.91602490234375,-5.9246392250061035,1.791864037513733,-0.9886469841003418
1722585556801003800,10.926003662109375,-5.9246392250061035,1.791864037513733,-0.9886469841003418
1722585556810992400,10.935992431640624,-9.424551963806152,0.056297000497579575,-1.081423044204712
1722585556820981000,10.94598095703125,-9.424551963806152,0.056297000497579575,-1.081423044204712
1722585556830973200,10.95597314453125,-3.147490978240967,-5.061882019042969,-6.1288371086120605
1722585556840965000,10.965965087890625,-3.147490978240967,-5.061882019042969,-6.1288371086120605
1722585556850954500,10.97595458984375,-0.4424409866333008,-3.860814094543457,-3.7585930824279785
1722585556860944000,10.98594384765625,-0.4424409866333008,-3.860814094543457,-3.7585930824279785
1722585556870933800,10.995933837890625,2.1434719562530518,-0.666824996471405,-2.2108969688415527
1722585556880923400,11.00592333984375,2.1434719562530518,-0.666824996471405,-2.2108969688415527
1722585556890916900,11.015916748046875,-0.18681299686431885,1.3517119884490967,-2.0468859672546387
1722585556900910300,11.025910400390625,-0.18681299686431885,1.3517119884490967,-2.0468859672546387
1722585556910901200,11.0359013671875,2.9041380882263184,2.000854969024658,-1.6427949666976929
1722585556920892000,11.045891845703125,2.9041380882263184,2.000854969024658,-1.6427949666976929
1722585556930882800,11.0558828125,2.7241098880767822,3.635885000228882,-0.4792709946632385
1722585556940873500,11.06587353515625,2.7241098880767822,3.635885000228882,-0.4792709946632385
1722585556950866000,11.075865966796876,7.5405778884887695,4.639660835266113,-0.6287040114402771
1722585556960858400,11.0858583984375,7.5405778884887695,4.639660835266113,-0.6287040114402771
1722585556970852600,11.0958525390625,5.551904201507568,1.7855210304260254,1.3718489408493042
1722585556980846600,11.1058466796875,5.551904201507568,1.7855210304260254,1.3718489408493042
1722585556990842600,11.115842529296875,3.919951915740967,2.780566930770874,0.028483999893069267
1722585557000838700,11.125838623046874,3.919951915740967,2.780566930770874,0.028483999893069267
1722585557010832400,11.135832275390625,-2.81978702545166,0.26454800367355347,0.12748700380325317
1722585557020825900,11.145825927734375,-2.81978702545166,0.26454800367355347,0.12748700380325317
1722585557030816300,11.155816162109375,-2.8837521076202393,-0.04833900183439255,0.5999850034713745
1722585557040806400,11.165806396484374,-2.8837521076202393,-0.04833900183439255,0.5999850034713745
1722585557050784800,11.17578466796875,1.430413007736206,0.493243008852005,0.3924660086631775
1722585557060763400,11.185763427734376,1.430413007736206,0.493243008852005,0.3924660086631775
1722585557070754600,11.195754638671875,0.8138309717178345,1.1464970111846924,-0.06355299800634384
1722585557080746000,11.20574609375,0.8138309717178345,1.1464970111846924,-0.06355299800634384
1722585557090718500,11.215718505859375,-2.4952850341796875,0.9410160183906555,1.2850730419158936
1722585557100691000,11.22569091796875,-2.4952850341796875,0.9410160183906555,1.2850730419158936
1722585557110678300,11.23567822265625,-1.6075999736785889,-0.2627359926700592,2.0592639446258545
1722585557120665300,11.245665283203126,-1.6075999736785889,-0.2627359926700592,2.0592639446258545
1722585557130654700,11.25565478515625,-0.3480130136013031,-0.14371000230312347,1.1408720016479492
1722585557140644000,11.26564404296875,-0.3480130136013031,-0.14371000230312347,1.1408720016479492
1722585557150637000,11.275636962890625,-0.3822230100631714,-0.8090130090713501,1.1564819812774658
1722585557160630000,11.285630126953125,-0.3822230100631714,-0.8090130090713501,1.1564819812774658
1722585557170619000,11.295618896484376,-0.8488209843635559,-1.7741639614105225,0.7751830220222473
1722585557180608000,11.30560791015625,-0.8488209843635559,-1.7741639614105225,0.7751830220222473
1722585557190597400,11.315597412109375,-2.759598970413208,-2.1392650604248047,1.06673002243042
1722585557200586800,11.325586669921876,-2.759598970413208,-2.1392650604248047,1.06673002243042
1722585557210576100,11.335576171875,-1.0044670104980469,-1.6408840417861938,-1.0317200422286987
1722585557220565500,11.3455654296875,-1.0044670104980469,-1.6408840417861938,-1.0317200422286987
1722585557230542300,11.355542236328125,1.242629051208496,0.7720779776573181,-0.10423199832439423
1722585557240519400,11.36551953125,1.242629051208496,0.7720779776573181,-0.10423199832439423
1722585557250511000,11.375510986328125,-1.9459500312805176,-0.2618589997291565,-0.22639599442481995
1722585557260502800,11.385502685546875,-1.9459500312805176,-0.2618589997291565,-0.22639599442481995
1722585557270483500,11.3954833984375,-0.123260997235775,0.03958899900317192,-1.15378999710083
1722585557280464100,11.405464111328126,-0.123260997235775,0.03958899900317192,-1.15378999710083
1722585557290455800,11.415455810546876,2.497875928878784,0.8201109766960144,-1.2475509643554688
1722585557300447500,11.425447509765625,2.497875928878784,0.8201109766960144,-1.2475509643554688
1722585557310430200,11.43543017578125,1.2677279710769653,0.050053998827934265,-1.4949560165405273
1722585557320413000,11.445412841796875,1.2677279710769653,0.050053998827934265,-1.4949560165405273
1722585557330402300,11.45540234375,-0.425803005695343,0.8575459718704224,-0.7258279919624329
1722585557340391700,11.4653916015625,-0.425803005695343,0.8575459718704224,-0.7258279919624329
1722585557350383600,11.475383544921876,2.1145360469818115,-0.5416489839553833,0.6421499848365784
1722585557360375600,11.48537548828125,2.1145360469818115,-0.5416489839553833,0.6421499848365784
1722585557370354000,11.49535400390625,4.330620765686035,-0.2183849960565567,1.938330054283142
1722585557380332500,11.50533251953125,4.330620765686035,-0.2183849960565567,1.938330054283142
1722585557390311200,11.515311279296874,4.076253890991211,1.8788570165634155,1.2764780521392822
1722585557400289500,11.52528955078125,4.076253890991211,1.8788570165634155,1.2764780521392822
1722585557410280200,11.5352802734375,-8.362807273864746,0.6507220268249512,-0.40496599674224854
1722585557420270800,11.545270751953124,-8.362807273864746,0.6507220268249512,-0.40496599674224854
1722585557430239700,11.55523974609375,0.7647600173950195,-0.9190289974212646,0.07412300258874893
1722585557440209000,11.565208984375,0.7647600173950195,-0.9190289974212646,0.07412300258874893
1722585557450179300,11.575179443359374,1.623816967010498,-3.4725890159606934,0.5798259973526001
1722585557460150000,11.58514990234375,1.623816967010498,-3.4725890159606934,0.5798259973526001
1722585557470140000,11.595139892578125,0.5046200156211853,0.7200350165367126,0.6382930278778076
1722585557480130000,11.605130126953124,0.5046200156211853,0.7200350165367126,0.6382930278778076
1722585557490123000,11.615123046875,-2.0492300987243652,5.226585865020752,0.7172729969024658
1722585557500116200,11.6251162109375,-2.0492300987243652,5.226585865020752,0.7172729969024658
1722585557510091800,11.635091796875,1.5966930389404297,3.3500380516052246,-0.3231300115585327
1722585557520067600,11.645067626953125,1.5966930389404297,3.3500380516052246,-0.3231300115585327
1722585557530048800,11.655048828125,3.277427911758423,1.4766160249710083,-0.2660059928894043
1722585557540030000,11.665030029296876,3.277427911758423,1.4766160249710083,-0.2660059928894043
1722585557550009300,11.67500927734375,-0.973550021648407,-1.304690957069397,-0.37109100818634033
1722585557559989000,11.684989013671874,-0.973550021648407,-1.304690957069397,-0.37109100818634033
1722585557569974500,11.694974609375,-6.43140983581543,1.4366739988327026,0.5302309989929199
1722585557579960000,11.7049599609375,-6.43140983581543,1.4366739988327026,0.5302309989929199
1722585557589937400,11.7149375,-2.4612410068511963,-1.2715590000152588,-0.32012099027633667
1722585557599914800,11.724914794921874,-2.4612410068511963,-1.2715590000152588,-0.32012099027633667
1722585557609891000,11.73489111328125,0.5927090048789978,-0.7153350114822388,0.9998130202293396
1722585557619867400,11.744867431640625,0.5927090048789978,-0.7153350114822388,0.9998130202293396
1722585557629861600,11.754861572265625,3.2997429370880127,-0.25652599334716797,0.6641709804534912
1722585557639855900,11.76485595703125,3.2997429370880127,-0.25652599334716797,0.6641709804534912
1722585557649826600,11.77482666015625,-2.6567020416259766,-1.8667809963226318,-1.3711780309677124
1722585557659797200,11.78479736328125,-2.6567020416259766,-1.8667809963226318,-1.3711780309677124
1722585557669768700,11.794768798828125,0.04346499964594841,1.0603350400924683,0.1812320053577423
1722585557679740200,11.804740234375,0.04346499964594841,1.0603350400924683,0.1812320053577423
1722585557689734700,11.814734619140625,2.215877056121826,0.995464026927948,0.6360229849815369
1722585557699729400,11.8247294921875,2.215877056121826,0.995464026927948,0.6360229849815369
1722585557709718300,11.83471826171875,4.128042221069336,-0.6380450129508972,-0.544588029384613
1722585557719707100,11.84470703125,4.128042221069336,-0.6380450129508972,-0.544588029384613
1722585557729684200,11.854684326171874,-1.3881679773330688,-0.5507439970970154,-1.0296319723129272
1722585557739661300,11.864661376953125,-1.3881679773330688,-0.5507439970970154,-1.0296319723129272
1722585557749655000,11.874655029296875,-1.8590480089187622,2.266637086868286,1.1092970371246338
1722585557759649000,11.88464892578125,-1.8590480089187622,2.266637086868286,1.1092970371246338
1722585557769613600,11.894613525390625,0.7272830009460449,-0.3206399977207184,0.6382529735565186
1722585557779578400,11.904578369140625,0.7272830009460449,-0.3206399977207184,0.6382529735565186
1722585557789541600,11.914541748046876,-0.48819500207901,-0.13823099434375763,0.5973010063171387
1722585557799504600,11.924504638671875,-0.48819500207901,-0.13823099434375763,0.5973010063171387
1722585557809483800,11.93448388671875,-3.3752989768981934,-2.111665964126587,-1.4246439933776855
1722585557819463200,11.944463134765625,-3.3752989768981934,-2.111665964126587,-1.4246439933776855
1722585557829451300,11.954451171875,0.0941229984164238,-3.718458890914917,-2.303462028503418
1722585557839439400,11.964439453125,0.0941229984164238,-3.718458890914917,-2.303462028503418
1722585557849432000,11.97443212890625,2.277127981185913,1.267335057258606,0.3979640007019043
1722585557859425000,11.984425048828125,2.277127981185913,1.267335057258606,0.3979640007019043
1722585557869414100,11.9944140625,-2.648897886276245,0.0875919982790947,-2.0379459857940674
1722585557879403300,12.0044033203125,-2.648897886276245,0.0875919982790947,-2.0379459857940674
1722585557889388800,12.014388916015625,-1.4809410572052002,3.7405760288238525,-0.8231809735298157
1722585557899374300,12.024374267578125,-1.4809410572052002,3.7405760288238525,-0.8231809735298157
1722585557909361400,12.034361328125,1.601431965827942,2.1906731128692627,0.3259209990501404
1722585557919348200,12.04434814453125,1.601431965827942,2.1906731128692627,0.3259209990501404
1722585557929330000,12.054329833984376,3.0835680961608887,0.9428989887237549,2.127146005630493
1722585557939311400,12.064311279296875,3.0835680961608887,0.9428989887237549,2.127146005630493
1722585557949302800,12.074302734375,0.08372300118207932,-1.4849480390548706,1.9132699966430664
1722585557959294200,12.084294189453125,0.08372300118207932,-1.4849480390548706,1.9132699966430664
1722585557969276400,12.0942763671875,-0.5910660028457642,2.1915040016174316,-0.7969499826431274
1722585557979258400,12.10425830078125,-0.5910660028457642,2.1915040016174316,-0.7969499826431274
1722585557989250300,12.114250244140624,-2.4241878986358643,2.2021610736846924,-8.929323196411133
1722585557999242200,12.1242421875,-2.4241878986358643,2.2021610736846924,-8.929323196411133
1722585558009211100,12.134211181640625,7.938154220581055,0.0013770000077784061,10.175827980041504
1722585558019179800,12.1441796875,7.938154220581055,0.0013770000077784061,10.175827980041504
1722585558029157400,12.154157470703124,-0.2859790027141571,-10.548744201660156,8.081522941589355
1722585558039135000,12.164135009765625,-0.2859790027141571,-10.548744201660156,8.081522941589355
1722585558049128700,12.174128662109375,3.8503589630126953,-3.0794389247894287,3.7123749256134033
1722585558059122400,12.184122314453125,3.8503589630126953,-3.0794389247894287,3.7123749256134033
1722585558069111600,12.194111572265625,10.57870864868164,-6.3349761962890625,-11.71127700805664
1722585558079100400,12.204100341796876,10.57870864868164,-6.3349761962890625,-11.71127700805664
1722585558089092000,12.214092041015626,-4.05583381652832,1.5867979526519775,-10.060592651367188
1722585558099084000,12.224083984375,-4.05583381652832,1.5867979526519775,-10.060592651367188
1722585558109072100,12.234072021484375,-21.35670280456543,-0.5283330082893372,10.353827476501465
1722585558119060500,12.244060546875,-21.35670280456543,-0.5283330082893372,10.353827476501465
1722585558129048600,12.254048583984375,6.296188831329346,-1.0084869861602783,2.2779018878936768
1722585558139037000,12.264036865234376,6.296188831329346,-1.0084869861602783,2.2779018878936768
1722585558149006300,12.27400634765625,1.097720980644226,-2.037806987762451,-2.7927069664001465
1722585558158975700,12.283975830078125,1.097720980644226,-2.037806987762451,-2.7927069664001465
1722585558168964000,12.293964111328124,-3.718061923980713,-1.1652940511703491,-9.39643383026123
1722585558178952700,12.30395263671875,-3.718061923980713,-1.1652940511703491,-9.39643383026123
1722585558188941300,12.31394140625,-9.509288787841797,1.1987570524215698,-3.9461660385131836
1722585558198929700,12.3239296875,-9.509288787841797,1.1987570524215698,-3.9461660385131836
1722585558208918300,12.333918212890625,-6.03373384475708,-1.564450979232788,-4.168616771697998
1722585558218907000,12.343906982421874,-6.03373384475708,-1.564450979232788,-4.168616771697998
1722585558228893000,12.353892822265625,1.7394039630889893,-0.8275650143623352,-4.3280510902404785
1722585558238878700,12.363878662109375,1.7394039630889893,-0.8275650143623352,-4.3280510902404785
1722585558248855300,12.373855224609375,9.108987808227539,-4.0210862159729,3.715059995651245
1722585558258831600,12.38383154296875,9.108987808227539,-4.0210862159729,3.715059995651245
1722585558268812300,12.393812255859375,-3.534463882446289,-2.523921012878418,4.814006805419922
1722585558278793000,12.40379296875,-3.534463882446289,-2.523921012878418,4.814006805419922
1722585558288780800,12.41378076171875,-5.2392778396606445,-3.60235595703125,-0.10447999835014343
1722585558298768600,12.4237685546875,-5.2392778396606445,-3.60235595703125,-0.10447999835014343
1722585558308747800,12.433747802734375,5.053102016448975,-2.2640600204467773,-0.1971919983625412
1722585558318726700,12.4437265625,5.053102016448975,-2.2640600204467773,-0.1971919983625412
1722585558328719000,12.453718994140624,5.093925952911377,-1.0295790433883667,2.467128038406372
1722585558338711300,12.463711181640624,5.093925952911377,-1.0295790433883667,2.467128038406372
1722585558348697000,12.473697021484375,4.691802978515625,1.0041110515594482,0.6408079862594604
1722585558358683000,12.483682861328125,4.691802978515625,1.0041110515594482,0.6408079862594604
